
{
    "resourceType": "Bundle",
    "id": "bundle-transaction",
    "type": "transaction",
    "timestamp": "2017-11-17T10:05:00.000Z", 
    "entry": [
        {
            "fullUrl": "urn:uuid:FHIR_MODEL_EXAMPLE_RIVERAIN_PATIENT",
            "resource":{
                "resourceType": "Patient",
                "identifier": [
                    {
                      "type": {
                        "coding": [
                          {
                            "system": "http://terminology.hl7.org/CodeSystem/v2-0203",
                            "code": "Medical record number",
                            "display": "Medical record number"
                          }
                        ]
                      },
                      "value": "D015-00001"
                    }
                  ],
                  "name": [ {
                      "text": "D015-00001"
                    }
                  ],
                  "gender": "male",
                  "birtDate": "1960-01-01"
            },
            "request": {
                "method": "POST",
                "url": "Patient?identifier=|D015-00001"
            }
        },
        {
            "fullUrl": "urn:uuid:FHIR_MODEL_EXAMPLE_RIVERAIN_DEVICE",
            "resource": {
                "resourceType": "Device",
                "identifier": [
                    {
                        "system": "urn:ietf:rfc:3986",
                        "value": "1.2.300.0.7230010.3.1.2.925600316.47192.1602892996.1"
                    }
                ],
                "manufacturer": "RiveRain Technologies",
                "serialNumber": "1234567890" 
            },
            "request": {
                "method": "PUT",
                "url": "Device?identifier=urn:ietf:rfc:3986|1.2.300.0.7230010.3.1.2.925600316.47192.1602892996.1"
            }
        },
        {
            "fullUrl": "urn:uuid:FHIR_MODEL_EXAMPLE_RIVERAIN_IMAGINGSTUDY1",
            "resource":{
                "resourceType": "ImagingStudy",
                "identifier": [
                    {
                        "use": "official",
                        "system": "urn:dicom:uid",
                        "value": "urn:oid:1.2.300.0.7230010.3.1.4.925600316.47192.1602892996.3.50"
                    }
                ],
                "status": "available",
                "subject": {
                    "reference": "urn:uuid:FHIR_MODEL_EXAMPLE_RIVERAIN_PATIENT"
                },
                "series": [
                    {
                        "uid": "",
                        "modality": {
                            "system": "http://dicom.nema.org/resources/ontology/DCM",
                            "code": "1.3.6.1.4.1.11157.102502.508.679690682720629.2019"
                        },
                        "instance": [
                            {
                                "uid": "1.3.6.1.4.1.11157.102502.508.679690682720629.2019.1",
                                "sopClass": {
                                    "system": "urn:ietf:rfc:3986",
                                    "code": "urn:oid:1.2.840.10008.5.1.4.1.1.2"
                                }
                            }
                        ]
                    }
                ]
            },
            "request": {
                "method": "POST",
                "url": "urn:uuid:FHIR_MODEL_EXAMPLE_RIVERAIN_IMAGINGSTUDY1"
            }
        },
        {
            "fullUrl": "urn:uuid:FHIR_MODEL_EXAMPLE_RIVERAIN_BODYSTRUCTURE_lesion1",
            "resource":{
                "resourceType":"BodyStructure",
                "identifier": [
                    {
                        "type": {
                            "text": "Tracking Identifier"
                        },
                        "system": "NCIt",
                        "value": "Lesion 1"
                    },
                    {
                        "type": {
                            "text": "Tracking Unique Identifier"
                        },
                        "system": "NCIt",
                        "value": "1.3.6.1.4.1.11157.102502.508.679690682720629.2019.1.1"
                    }
                ],
                "morphology": {
                    "coding": [
                        {
                            "system": "SCT",
                            "code": "52988006",
                            "display": "Lesion"
                        }
                    ]
                },
                "location": {
                    "coding": [
                        {
                            "system": "SCT",
                            "code": "44714003",
                            "display": "Upper lobe of left lung"
                        }
                    ]
                },
                "patient": {
                    "reference": "urn:uuid:FHIR_MODEL_EXAMPLE_RIVERAIN_PATIENT"
                }
            },
            "request": {
                "method": "PUT",
                "url": "urn:uuid:FHIR_MODEL_EXAMPLE_RIVERAIN_BODYSTRUCTURE_lesion1"
            }
        },
        {
            "fullUrl": "urn:uuid:FHIR_MODEL_EXAMPLE_RIVERAIN_OBSERVATION1_1",
            "resource": {
                "resourceType": "Observation",
                "meta": {
                    "profile": [
                        "http://hl7.org/fhir/dicom-sr/StructureDefinition/dicom-sr-observation"
                    ]
                },
                "text": {
                    "status": "generated"
                },
                "identifier": [
                    {
                        "use": "official",
                        "system": "DCM",
                        "value": "112039"
                    }
                ],
                "status": "preliminary",
                "focus": [{
                    "reference": "urn:uuid:FHIR_MODEL_EXAMPLE_RIVERAIN_BODYSTRUCTURE_lesion1"
                }],
                "code": {
                    "coding": [
                        {
                            "system": "SCT",
                            "code": "103339001",
                            "display": "Long Axis"
                        }
                    ]
                },
                "subject": {
                    "reference": "urn:uuid:FHIR_MODEL_EXAMPLE_RIVERAIN_PATIENT"
                },
                "partOf": {
                    "reference": "urn:uuid:FHIR_MODEL_EXAMPLE_RIVERAIN_IMAGINGSTUDY1"
                },
                "valueQuantity": {
                    "value": 6.1,
                    "unit": "mm",
                    "system": "UCUM",
                    "code": "millimeter"
                }
            },
            "request": {
                "method": "POST",
                "url": "urn:uuid:FHIR_MODEL_EXAMPLE_RIVERAIN_OBSERVATION1_1"
            }
        },
        {
            "fullUrl": "urn:uuid:FHIR_MODEL_EXAMPLE_RIVERAIN_OBSERVATION1_2",
            "resource": {
                "resourceType": "Observation",
                "meta": {
                    "profile": [
                        "http://hl7.org/fhir/dicom-sr/StructureDefinition/dicom-sr-observation"
                    ]
                },
                "text": {
                    "status": "generated"
                },
                "identifier": [
                    {
                        "use": "official",
                        "system": "DCM",
                        "value": "112039"
                    }
                ],
                "status": "preliminary",
                "focus": [{
                    "reference": "urn:uuid:FHIR_MODEL_EXAMPLE_RIVERAIN_BODYSTRUCTURE_lesion1"
                }],
                "code": {
                    "coding": [
                        {
                            "system": "SCT",
                            "code": "103340004",
                            "display": "Short Axis"
                        }
                    ]
                },
                "subject": {
                    "reference": "urn:uuid:FHIR_MODEL_EXAMPLE_RIVERAIN_PATIENT"
                },
                "partOf": {
                    "reference": "urn:uuid:FHIR_MODEL_EXAMPLE_RIVERAIN_IMAGINGSTUDY1"
                },
                "valueQuantity": {
                    "value": 5.2,
                    "unit": "mm",
                    "system": "UCUM",
                    "code": "millimeter"
                }
            },
            "request": {
                "method": "POST",
                "url": "urn:uuid:FHIR_MODEL_EXAMPLE_RIVERAIN_OBSERVATION1_2"
            }
        },
        {
            "fullUrl": "urn:uuid:FHIR_MODEL_EXAMPLE_RIVERAIN_OBSERVATION1_3",
            "resource": {
                "resourceType": "Observation",
                "meta": {
                    "profile": [
                        "http://hl7.org/fhir/dicom-sr/StructureDefinition/dicom-sr-observation"
                    ]
                },
                "text": {
                    "status": "generated"
                },
                "identifier": [
                    {
                        "use": "official",
                        "system": "DCM",
                        "value": "112039"
                    }
                ],
                "status": "preliminary",
                "focus": [{
                    "reference": "urn:uuid:FHIR_MODEL_EXAMPLE_RIVERAIN_BODYSTRUCTURE_lesion1"
                }],
                "code": {
                    "coding": [
                        {
                            "system": "RADLEX",
                            "code": "RID50155",
                            "display": "Diameter"
                        }
                    ]
                },
                "subject": {
                    "reference": "urn:uuid:FHIR_MODEL_EXAMPLE_RIVERAIN_PATIENT"
                },
                "partOf": {
                    "reference": "urn:uuid:FHIR_MODEL_EXAMPLE_RIVERAIN_IMAGINGSTUDY1"
                },
                "valueQuantity": {
                    "value": 5.7,
                    "unit": "mm",
                    "system": "UCUM",
                    "code": "millimeter"
                }
            },
            "request": {
                "method": "POST",
                "url": "urn:uuid:FHIR_MODEL_EXAMPLE_RIVERAIN_OBSERVATION1_3"
            }
        },
        {
            "fullUrl": "urn:uuid:FHIR_MODEL_EXAMPLE_RIVERAIN_OBSERVATION1_4",
            "resource": {
                "resourceType": "Observation",
                "meta": {
                    "profile": [
                        "http://hl7.org/fhir/dicom-sr/StructureDefinition/dicom-sr-observation"
                    ]
                },
                "text": {
                    "status": "generated"
                },
                "identifier": [
                    {
                        "use": "official",
                        "system": "DCM",
                        "value": "112039"
                    }
                ],
                "status": "preliminary",
                "focus": [{
                    "reference": "urn:uuid:FHIR_MODEL_EXAMPLE_RIVERAIN_BODYSTRUCTURE_lesion1"
                }],
                "code": {
                    "coding": [
                        {
                            "system": "99RMGSR",
                            "code": "99001",
                            "display": "Craniocaudal Diameter"
                        }
                    ]
                },
                "subject": {
                    "reference": "urn:uuid:FHIR_MODEL_EXAMPLE_RIVERAIN_PATIENT"
                },
                "partOf": {
                    "reference": "urn:uuid:FHIR_MODEL_EXAMPLE_RIVERAIN_IMAGINGSTUDY1"
                },
                "valueQuantity": {
                    "value": 7.2,
                    "unit": "mm",
                    "system": "UCUM",
                    "code": "millimeter"
                }
            },
            "request": {
                "method": "POST",
                "url": "urn:uuid:FHIR_MODEL_EXAMPLE_RIVERAIN_OBSERVATION1_4"
            }
        },
        {
            "fullUrl": "urn:uuid:FHIR_MODEL_EXAMPLE_RIVERAIN_OBSERVATION1_5",
            "resource": {
                "resourceType": "Observation",
                "meta": {
                    "profile": [
                        "http://hl7.org/fhir/dicom-sr/StructureDefinition/dicom-sr-observation"
                    ]
                },
                "text": {
                    "status": "generated"
                },
                "identifier": [
                    {
                        "use": "official",
                        "system": "DCM",
                        "value": "112039"
                    }
                ],
                "status": "preliminary",
                "focus": [{
                    "reference": "urn:uuid:FHIR_MODEL_EXAMPLE_RIVERAIN_BODYSTRUCTURE_lesion1"
                }],
                "code": {
                    "coding": [
                        {
                            "system": "RADLEX",
                            "code": "RID28668",
                            "display": "Volume"
                        }
                    ]
                },
                "subject": {
                    "reference": "urn:uuid:FHIR_MODEL_EXAMPLE_RIVERAIN_PATIENT"
                },
                "partOf": {
                    "reference": "urn:uuid:FHIR_MODEL_EXAMPLE_RIVERAIN_IMAGINGSTUDY1"
                },
                "valueQuantity": {
                    "value": 139,
                    "unit": "mm3",
                    "system": "UCUM",
                    "code": "cubic millimeter"
                }
            },
            "request": {
                "method": "POST",
                "url": "urn:uuid:FHIR_MODEL_EXAMPLE_RIVERAIN_OBSERVATION1_5"
            }
        },
        {
            "fullUrl": "urn:uuid:FHIR_MODEL_EXAMPLE_RIVERAIN_OBSERVATION1_6",
            "resource": {
                "resourceType": "Observation",
                "meta": {
                    "profile": [
                        "http://hl7.org/fhir/dicom-sr/StructureDefinition/dicom-sr-observation"
                    ]
                },
                "text": {
                    "status": "generated"
                },
                "identifier": [
                    {
                        "use": "official",
                        "system": "DCM",
                        "value": "112039"
                    }
                ],
                "status": "preliminary",
                "focus": [{
                    "reference": "urn:uuid:FHIR_MODEL_EXAMPLE_RIVERAIN_BODYSTRUCTURE_lesion1"
                }],
                "code": {
                    "coding": [
                        {
                            "system": "RADLEX",
                            "code": "RID39166",
                            "display": "Density"
                        }
                    ]
                },
                "subject": {
                    "reference": "urn:uuid:FHIR_MODEL_EXAMPLE_RIVERAIN_PATIENT"
                },
                "partOf": {
                    "reference": "urn:uuid:FHIR_MODEL_EXAMPLE_RIVERAIN_IMAGINGSTUDY1"
                },
                "valueQuantity": {
                    "value": 139,
                    "unit": "HU",
                    "system": "UCUM",
                    "code": "Hounsfield units"
                }
            },
            "request": {
                "method": "POST",
                "url": "urn:uuid:FHIR_MODEL_EXAMPLE_RIVERAIN_OBSERVATION1_6"
            }
        },
        {
            "fullUrl": "urn:uuid:FHIR_MODEL_EXAMPLE_OBSERVATION_LESION1",
            "resource": {
                "resourceType": "Observation",
                "partOf": [
                    {
                        "reference": "urn:uuid:FHIR_MODEL_EXAMPLE_RIVERAIN_IMAGINGSTUDY1"
                    }
                ],
                "status": "final",
                "category": [
                    {
                        "coding": [
                            {
                                "system": "http://terminology.hl7.org/CodeSystem/observation-category",
                                "version": "4.0.1",
                                "code": "imaging",
                                "display": "imaging"
                            }
                        ]
                    }
                ],
                "code": {
                    "coding": [
                        {
                            "system": "http://snomed.info/sct",
                            "code": "404684003",
                            "display": "Clinical finding"
                        }
                    ],
                    "text": "Clinical finding"
                },
                "subject": {
                    "reference": "urn:uuid:FHIR_MODEL_EXAMPLE_RIVERAIN_PATIENT"
                },
                "valueCodeableConcept": {
                    "coding": [
                        {
                            "system": "http://snomed.info/sct",
                            "code": "4147007",
                            "display": "Mass (morphologic abnormality)"
                        }
                    ]
                },
                "device": {
                    "reference": "urn:uuid:FHIR_MODEL_EXAMPLE_RIVERAIN_DEVICE"
                },
                "effectiveDateTime": "2017-11-17T10:05:00.000Z",
                "hasMember": [
                    {
                        "reference": "urn:uuid:FHIR_MODEL_EXAMPLE_RIVERAIN_OBSERVATION1_1"
                    },
                    {
                        "reference": "urn:uuid:FHIR_MODEL_EXAMPLE_RIVERAIN_OBSERVATION1_2"
                    },
                    {
                        "reference": "urn:uuid:FHIR_MODEL_EXAMPLE_RIVERAIN_OBSERVATION1_3"
                    },
                    {
                        "reference": "urn:uuid:FHIR_MODEL_EXAMPLE_RIVERAIN_OBSERVATION1_4"
                    },
                    {
                        "reference": "urn:uuid:FHIR_MODEL_EXAMPLE_RIVERAIN_OBSERVATION1_5"
                    },
                    {
                        "reference": "urn:uuid:FHIR_MODEL_EXAMPLE_RIVERAIN_OBSERVATION1_6"
                    }
                ]
            },
            "request": {
                "method": "POST",
                "url": "urn:uuid:FHIR_MODEL_EXAMPLE_OBSERVATION_LESION1"
            }
        }
    ]
}