{
    "resourceType": "Bundle",
    "id": "bundle-transaction",
    "type": "transaction",
    "timestamp": "1998-03-03T10:39:38+00:00",
    "entry": [
        {
            "fullUrl": "urn:uuid:FHIR_MODEL_EXAMPLE_RIVERAIN_PATIENT",
            "resource": {
                "resourceType": "Patient",
                "identifier": [
                    {
                        "type": {
                            "coding": [
                                {
                                    "system": "http://terminology.hl7.org/CodeSystem/v2-0203",
                                    "code": "Medical record number",
                                    "display": "Medical record number"
                                }
                            ]
                        },
                        "value": "D015-00008"
                    }
                ],
                "name": [
                    {
                        "text": "D015-00008"
                    }
                ],
                "gender": "male",
                "birthDate": "1960-01-01"
            },
            "request": {
                "method": "POST",
                "url": "Patient?identifier=|D015-00008"
            }
        },
        {
            "fullUrl": "urn:uuid:FHIR_MODEL_EXAMPLE_RIVERAIN_DEVICE",
            "resource": {
                "resourceType": "Device",
                "identifier": [
                    {
                        "system": "urn:ietf:rfc:3986",
                        "value": "1.2.300.0.7230010.3.1.2.925600316.47192.1602892996.1"
                    }
                ],
                "manufacturer": "RiveRain Technologies",
                "serialNumber": "1234567890" 
            },
            "request": {
                "method": "PUT",
                "url": "Device?identifier=urn:ietf:rfc:3986|1.2.300.0.7230010.3.1.2.925600316.47192.1602892996.1"
            }
        },
        {
            "fullUrl": "urn:uuid:FHIR_MODEL_EXAMPLE_RIVERAIN_IMAGINGSTUDY2",
            "resource": {
                "resourceType": "ImagingStudy",
                "identifier": [
                    {
                        "use": "official",
                        "system": "urn:dicom:uid",
                        "value": "urn:oid:1.3.6.1.4.1.14519.5.2.1.6279.6001.218658642102832118810712329678"
                    }
                ],
                "status": "available",
                "subject": {
                    "reference": "urn:uuid:FHIR_MODEL_EXAMPLE_RIVERAIN_PATIENT"
                },
                "started": "1998-03-03",
                "description": "CHEST",
                "series": [
                    {
                        "uid": "",
                        "modality": {
                            "system": "http://dicom.nema.org/resources/ontology/DCM",
                            "code": "1.3.6.1.4.1.11157.102502.75.679691452995675.2039.100"
                        },
                        "instance": [
                            {
                                "uid": "1.3.6.1.4.1.11157.102502.75.679691452995675.2039.2",
                                "sopClass": {
                                    "system": "urn:ietf:rfc:3986",
                                    "code": "urn:oid:1.2.840.10008.5.1.4.1.1.88.22"
                                }
                            }
                        ]
                    }
                ]
            },
            "request": {
                "method": "POST",
                "url": "urn:uuid:FHIR_MODEL_EXAMPLE_RIVERAIN_IMAGINGSTUDY2"
            }
        },
        {
            "fullUrl": "urn:uuid:FHIR_MODEL_EXAMPLE_RIVERAIN_BODYSTRUCTURE_lesion1",
            "resource":{
                "resourceType":"BodyStructure",
                "identifier": [
                    {
                        "type": {
                            "text": "Tracking Identifier"
                        },
                        "system": "NCIt",
                        "value": "Lesion 1"
                    },
                    {
                        "type": {
                            "text": "Tracking Unique Identifier"
                        },
                        "system": "NCIt",
                        "value": "1.3.6.1.4.1.11157.102502.75.679691452995675.2039.1.1"
                    }
                ],
                "morphology": {
                    "coding": [
                        {
                            "system": "SCT",
                            "code": "52988006",
                            "display": "Lesion"
                        }
                    ]
                },
                "location": {
                    "coding": [
                        {
                            "system": "SCT",
                            "code": "42400003",
                            "display": "Upper lobe of right lung"
                        }
                    ]
                },
                "patient": {
                    "reference": "urn:uuid:FHIR_MODEL_EXAMPLE_RIVERAIN_PATIENT"
                }
            },
            "request": {
                "method": "PUT",
                "url": "urn:uuid:FHIR_MODEL_EXAMPLE_RIVERAIN_BODYSTRUCTURE_lesion1"
            }
        },
        {
            "fullUrl": "urn:uuid:FHIR_MODEL_EXAMPLE_RIVERAIN_OBSERVATION1_1",
            "resource": {
                "resourceType": "Observation",
                "meta": {
                    "profile": [
                        "http://hl7.org/fhir/dicom-sr/StructureDefinition/dicom-sr-observation"
                    ]
                },
                "text": {
                    "status": "generated"
                },
                "identifier": [
                    {
                        "use": "official",
                        "system": "DCM",
                        "value": "112039"
                    }
                ],
                "status": "preliminary",
                "focus": [{
                    "reference": "urn:uuid:FHIR_MODEL_EXAMPLE_RIVERAIN_BODYSTRUCTURE_lesion1"
                }],
                "code": {
                    "coding": [
                        {
                            "system": "SCT",
                            "code": "103339001",
                            "display": "Long Axis"
                        }
                    ]
                },
                "subject": {
                    "reference": "urn:uuid:FHIR_MODEL_EXAMPLE_RIVERAIN_PATIENT"
                },
                "partOf": {
                    "reference": "urn:uuid:FHIR_MODEL_EXAMPLE_RIVERAIN_IMAGINGSTUDY2"
                },
                "valueQuantity": {
                    "value": 4.7,
                    "unit": "mm",
                    "system": "UCUM",
                    "code": "millimeter"
                }
            },
            "request": {
                "method": "POST",
                "url": "urn:uuid:FHIR_MODEL_EXAMPLE_RIVERAIN_OBSERVATION1_1"
            }
        },
        {
            "fullUrl": "urn:uuid:FHIR_MODEL_EXAMPLE_RIVERAIN_OBSERVATION1_2",
            "resource": {
                "resourceType": "Observation",
                "meta": {
                    "profile": [
                        "http://hl7.org/fhir/dicom-sr/StructureDefinition/dicom-sr-observation"
                    ]
                },
                "text": {
                    "status": "generated"
                },
                "identifier": [
                    {
                        "use": "official",
                        "system": "DCM",
                        "value": "112039"
                    }
                ],
                "status": "preliminary",
                "focus": [{
                    "reference": "urn:uuid:FHIR_MODEL_EXAMPLE_RIVERAIN_BODYSTRUCTURE_lesion1"
                }],
                "code": {
                    "coding": [
                        {
                            "system": "SCT",
                            "code": "103340004",
                            "display": "Short Axis"
                        }
                    ]
                },
                "subject": {
                    "reference": "urn:uuid:FHIR_MODEL_EXAMPLE_RIVERAIN_PATIENT"
                },
                "partOf": {
                    "reference": "urn:uuid:FHIR_MODEL_EXAMPLE_RIVERAIN_IMAGINGSTUDY2"
                },
                "valueQuantity": {
                    "value": 4.0,
                    "unit": "mm",
                    "system": "UCUM",
                    "code": "millimeter"
                }
            },
            "request": {
                "method": "POST",
                "url": "urn:uuid:FHIR_MODEL_EXAMPLE_RIVERAIN_OBSERVATION1_2"
            }
        },
        {
            "fullUrl": "urn:uuid:FHIR_MODEL_EXAMPLE_RIVERAIN_OBSERVATION1_3",
            "resource": {
                "resourceType": "Observation",
                "meta": {
                    "profile": [
                        "http://hl7.org/fhir/dicom-sr/StructureDefinition/dicom-sr-observation"
                    ]
                },
                "text": {
                    "status": "generated"
                },
                "identifier": [
                    {
                        "use": "official",
                        "system": "DCM",
                        "value": "112039"
                    }
                ],
                "status": "preliminary",
                "focus": [{
                    "reference": "urn:uuid:FHIR_MODEL_EXAMPLE_RIVERAIN_BODYSTRUCTURE_lesion1"
                }],
                "code": {
                    "coding": [
                        {
                            "system": "RADLEX",
                            "code": "RID50155",
                            "display": "Diameter"
                        }
                    ]
                },
                "subject": {
                    "reference": "urn:uuid:FHIR_MODEL_EXAMPLE_RIVERAIN_PATIENT"
                },
                "partOf": {
                    "reference": "urn:uuid:FHIR_MODEL_EXAMPLE_RIVERAIN_IMAGINGSTUDY2"
                },
                "valueQuantity": {
                    "value": 4.4,
                    "unit": "mm",
                    "system": "UCUM",
                    "code": "millimeter"
                }
            },
            "request": {
                "method": "POST",
                "url": "urn:uuid:FHIR_MODEL_EXAMPLE_RIVERAIN_OBSERVATION1_3"
            }
        },
        {
            "fullUrl": "urn:uuid:FHIR_MODEL_EXAMPLE_RIVERAIN_OBSERVATION1_4",
            "resource": {
                "resourceType": "Observation",
                "meta": {
                    "profile": [
                        "http://hl7.org/fhir/dicom-sr/StructureDefinition/dicom-sr-observation"
                    ]
                },
                "text": {
                    "status": "generated"
                },
                "identifier": [
                    {
                        "use": "official",
                        "system": "DCM",
                        "value": "112039"
                    }
                ],
                "status": "preliminary",
                "focus": [{
                    "reference": "urn:uuid:FHIR_MODEL_EXAMPLE_RIVERAIN_BODYSTRUCTURE_lesion1"
                }],
                "code": {
                    "coding": [
                        {
                            "system": "99RMGSR",
                            "code": "99001",
                            "display": "Craniocaudal Diameter"
                        }
                    ]
                },
                "subject": {
                    "reference": "urn:uuid:FHIR_MODEL_EXAMPLE_RIVERAIN_PATIENT"
                },
                "partOf": {
                    "reference": "urn:uuid:FHIR_MODEL_EXAMPLE_RIVERAIN_IMAGINGSTUDY2"
                },
                "valueQuantity": {
                    "value": 6.0,
                    "unit": "mm",
                    "system": "UCUM",
                    "code": "millimeter"
                }
            },
            "request": {
                "method": "POST",
                "url": "urn:uuid:FHIR_MODEL_EXAMPLE_RIVERAIN_OBSERVATION1_4"
            }
        },
        {
            "fullUrl": "urn:uuid:FHIR_MODEL_EXAMPLE_RIVERAIN_OBSERVATION1_5",
            "resource": {
                "resourceType": "Observation",
                "meta": {
                    "profile": [
                        "http://hl7.org/fhir/dicom-sr/StructureDefinition/dicom-sr-observation"
                    ]
                },
                "text": {
                    "status": "generated"
                },
                "identifier": [
                    {
                        "use": "official",
                        "system": "DCM",
                        "value": "112039"
                    }
                ],
                "status": "preliminary",
                "focus": [{
                    "reference": "urn:uuid:FHIR_MODEL_EXAMPLE_RIVERAIN_BODYSTRUCTURE_lesion1"
                }],
                "code": {
                    "coding": [
                        {
                            "system": "RADLEX",
                            "code": "RID28668",
                            "display": "Volume"
                        }
                    ]
                },
                "subject": {
                    "reference": "urn:uuid:FHIR_MODEL_EXAMPLE_RIVERAIN_PATIENT"
                },
                "partOf": {
                    "reference": "urn:uuid:FHIR_MODEL_EXAMPLE_RIVERAIN_IMAGINGSTUDY2"
                },
                "valueQuantity": {
                    "value": 69,
                    "unit": "mm3",
                    "system": "UCUM",
                    "code": "cubic millimeter"
                }
            },
            "request": {
                "method": "POST",
                "url": "urn:uuid:FHIR_MODEL_EXAMPLE_RIVERAIN_OBSERVATION1_5"
            }
        },
        {
            "fullUrl": "urn:uuid:FHIR_MODEL_EXAMPLE_RIVERAIN_OBSERVATION1_6",
            "resource": {
                "resourceType": "Observation",
                "meta": {
                    "profile": [
                        "http://hl7.org/fhir/dicom-sr/StructureDefinition/dicom-sr-observation"
                    ]
                },
                "text": {
                    "status": "generated"
                },
                "identifier": [
                    {
                        "use": "official",
                        "system": "DCM",
                        "value": "112039"
                    }
                ],
                "status": "preliminary",
                "focus": [{
                    "reference": "urn:uuid:FHIR_MODEL_EXAMPLE_RIVERAIN_BODYSTRUCTURE_lesion1"
                }],
                "code": {
                    "coding": [
                        {
                            "system": "RADLEX",
                            "code": "RID39166",
                            "display": "Density"
                        }
                    ]
                },
                "subject": {
                    "reference": "urn:uuid:FHIR_MODEL_EXAMPLE_RIVERAIN_PATIENT"
                },
                "partOf": {
                    "reference": "urn:uuid:FHIR_MODEL_EXAMPLE_RIVERAIN_IMAGINGSTUDY2"
                },
                "valueQuantity": {
                    "value": -86,
                    "unit": "HU",
                    "system": "UCUM",
                    "code": "Hounsfield units"
                }
            },
            "request": {
                "method": "POST",
                "url": "urn:uuid:FHIR_MODEL_EXAMPLE_RIVERAIN_OBSERVATION1_6"
            }
        },
        {
            "fullUrl": "urn:uuid:FHIR_MODEL_EXAMPLE_RIVERAIN_OBSERVATION1_7",
            "resource": {
                "resourceType": "Observation",
                "meta": {
                    "profile": [
                        "http://hl7.org/fhir/dicom-sr/StructureDefinition/dicom-sr-observation"
                    ]
                },
                "text": {
                    "status": "generated"
                },
                "identifier": [
                    {
                        "use": "official",
                        "system": "DCM",
                        "value": "112039"
                    }
                ],
                "status": "preliminary",
                "focus": [{
                    "reference": "urn:uuid:FHIR_MODEL_EXAMPLE_RIVERAIN_BODYSTRUCTURE_lesion1"
                }],
                "code": {
                    "coding": [
                        {
                            "system": "RADLEX",
                            "code": "Volume Change",
                            "display": "Volume Change"
                        }
                    ]
                },
                "subject": {
                    "reference": "urn:uuid:FHIR_MODEL_EXAMPLE_RIVERAIN_PATIENT"
                },
                "partOf": {
                    "reference": "urn:uuid:FHIR_MODEL_EXAMPLE_RIVERAIN_IMAGINGSTUDY2"
                },
                "valueQuantity": {
                    "value": 110.07,
                    "unit": "%",
                    "system": "UCUM",
                    "code": "Percentage"
                }
            },
            "request": {
                "method": "POST",
                "url": "urn:uuid:FHIR_MODEL_EXAMPLE_RIVERAIN_OBSERVATION1_7"
            }
        },
        {
            "fullUrl": "urn:uuid:FHIR_MODEL_EXAMPLE_RIVERAIN_OBSERVATION1_8",
            "resource": {
                "resourceType": "Observation",
                "meta": {
                    "profile": [
                        "http://hl7.org/fhir/dicom-sr/StructureDefinition/dicom-sr-observation"
                    ]
                },
                "text": {
                    "status": "generated"
                },
                "identifier": [
                    {
                        "use": "official",
                        "system": "DCM",
                        "value": "112039"
                    }
                ],
                "status": "preliminary",
                "focus": [{
                    "reference": "urn:uuid:FHIR_MODEL_EXAMPLE_RIVERAIN_BODYSTRUCTURE_lesion1"
                }],
                "code": {
                    "coding": [
                        {
                            "system": "RADLEX",
                            "code": "Volume Doubling Time",
                            "display": "Volume Doubling Time"
                        }
                    ]
                },
                "subject": {
                    "reference": "urn:uuid:FHIR_MODEL_EXAMPLE_RIVERAIN_PATIENT"
                },
                "partOf": {
                    "reference": "urn:uuid:FHIR_MODEL_EXAMPLE_RIVERAIN_IMAGINGSTUDY2"
                },
                "valueQuantity": {
                    "value": 57,
                    "unit": "day",
                    "system": "UCUM",
                    "code": "day"
                }
            },
            "request": {
                "method": "POST",
                "url": "urn:uuid:FHIR_MODEL_EXAMPLE_RIVERAIN_OBSERVATION1_8"
            }
        },
        {
            "fullUrl": "urn:uuid:FHIR_MODEL_EXAMPLE_OBSERVATION_LESION1",
            "resource": {
                "resourceType": "Observation",
                "partOf": [
                    {
                        "reference": "urn:uuid:FHIR_MODEL_EXAMPLE_RIVERAIN_IMAGINGSTUDY2"
                    }
                ],
                "status": "final",
                "category": [
                    {
                        "coding": [
                            {
                                "system": "http://terminology.hl7.org/CodeSystem/observation-category",
                                "version": "4.0.1",
                                "code": "imaging",
                                "display": "imaging"
                            }
                        ]
                    }
                ],
                "code": {
                    "coding": [
                        {
                            "system": "http://snomed.info/sct",
                            "code": "404684003",
                            "display": "Clinical finding"
                        }
                    ],
                    "text": "Clinical finding"
                },
                "subject": {
                    "reference": "urn:uuid:FHIR_MODEL_EXAMPLE_RIVERAIN_PATIENT"
                },
                "valueCodeableConcept": {
                    "coding": [
                        {
                            "system": "http://snomed.info/sct",
                            "code": "4147007",
                            "display": "Mass (morphologic abnormality)"
                        }
                    ]
                },
                "device": {
                    "reference": "urn:uuid:FHIR_MODEL_EXAMPLE_RIVERAIN_DEVICE"
                },
                "effectiveDateTime": "1998-03-03T10:05:00.000Z",
                "hasMember": [
                    {
                        "reference": "urn:uuid:FHIR_MODEL_EXAMPLE_RIVERAIN_OBSERVATION1_1"
                    },
                    {
                        "reference": "urn:uuid:FHIR_MODEL_EXAMPLE_RIVERAIN_OBSERVATION1_2"
                    },
                    {
                        "reference": "urn:uuid:FHIR_MODEL_EXAMPLE_RIVERAIN_OBSERVATION1_3"
                    },
                    {
                        "reference": "urn:uuid:FHIR_MODEL_EXAMPLE_RIVERAIN_OBSERVATION1_4"
                    },
                    {
                        "reference": "urn:uuid:FHIR_MODEL_EXAMPLE_RIVERAIN_OBSERVATION1_5"
                    },
                    {
                        "reference": "urn:uuid:FHIR_MODEL_EXAMPLE_RIVERAIN_OBSERVATION1_6"
                    },
                    {
                        "reference": "urn:uuid:FHIR_MODEL_EXAMPLE_RIVERAIN_OBSERVATION1_7"
                    },
                    {
                        "reference": "urn:uuid:FHIR_MODEL_EXAMPLE_RIVERAIN_OBSERVATION1_8"
                    }
                ]
            },
            "request": {
                "method": "POST",
                "url": "urn:uuid:FHIR_MODEL_EXAMPLE_OBSERVATION_LESION1"
            }
        },
        {
            "fullUrl": "urn:uuid:FHIR_MODEL_EXAMPLE_RIVERAIN_BODYSTRUCTURE_lesion2",
            "resource":{
                "resourceType":"BodyStructure",
                "identifier": [
                    {
                        "type": {
                            "text": "Tracking Identifier"
                        },
                        "system": "NCIt",
                        "value": "Lesion 2"
                    },
                    {
                        "type": {
                            "text": "Tracking Unique Identifier"
                        },
                        "system": "NCIt",
                        "value": "1.3.6.1.4.1.11157.102502.75.679691452995675.2039.1.2"
                    }
                ],
                "morphology": {
                    "coding": [
                        {
                            "system": "SCT",
                            "code": "52988006",
                            "display": "Lesion"
                        }
                    ]
                },
                "location": {
                    "coding": [
                        {
                            "system": "SCT",
                            "code": "44714003",
                            "display": "Upper lobe of left lung"
                        }
                    ]
                },
                "patient": {
                    "reference": "urn:uuid:FHIR_MODEL_EXAMPLE_RIVERAIN_PATIENT"
                }
            },
            "request": {
                "method": "PUT",
                "url": "urn:uuid:FHIR_MODEL_EXAMPLE_RIVERAIN_BODYSTRUCTURE_lesion2"
            }
        },
        {
            "fullUrl": "urn:uuid:FHIR_MODEL_EXAMPLE_RIVERAIN_OBSERVATION2_1",
            "resource": {
                "resourceType": "Observation",
                "meta": {
                    "profile": [
                        "http://hl7.org/fhir/dicom-sr/StructureDefinition/dicom-sr-observation"
                    ]
                },
                "text": {
                    "status": "generated"
                },
                "identifier": [
                    {
                        "use": "official",
                        "system": "DCM",
                        "value": "112039"
                    }
                ],
                "status": "preliminary",
                "focus": [{
                    "reference": "urn:uuid:FHIR_MODEL_EXAMPLE_RIVERAIN_BODYSTRUCTURE_lesion2"
                }],
                "code": {
                    "coding": [
                        {
                            "system": "SCT",
                            "code": "103339001",
                            "display": "Long Axis"
                        }
                    ]
                },
                "subject": {
                    "reference": "urn:uuid:FHIR_MODEL_EXAMPLE_RIVERAIN_PATIENT"
                },
                "partOf": {
                    "reference": "urn:uuid:FHIR_MODEL_EXAMPLE_RIVERAIN_IMAGINGSTUDY2"
                },
                "valueQuantity": {
                    "value": 21.7,
                    "unit": "mm",
                    "system": "UCUM",
                    "code": "millimeter"
                }
            },
            "request": {
                "method": "POST",
                "url": "urn:uuid:FHIR_MODEL_EXAMPLE_RIVERAIN_OBSERVATION2_1"
            }
        },
        {
            "fullUrl": "urn:uuid:FHIR_MODEL_EXAMPLE_RIVERAIN_OBSERVATION2_2",
            "resource": {
                "resourceType": "Observation",
                "meta": {
                    "profile": [
                        "http://hl7.org/fhir/dicom-sr/StructureDefinition/dicom-sr-observation"
                    ]
                },
                "text": {
                    "status": "generated"
                },
                "identifier": [
                    {
                        "use": "official",
                        "system": "DCM",
                        "value": "112039"
                    }
                ],
                "status": "preliminary",
                "focus": [{
                    "reference": "urn:uuid:FHIR_MODEL_EXAMPLE_RIVERAIN_BODYSTRUCTURE_lesion2"
                }],
                "code": {
                    "coding": [
                        {
                            "system": "SCT",
                            "code": "103340004",
                            "display": "Short Axis"
                        }
                    ]
                },
                "subject": {
                    "reference": "urn:uuid:FHIR_MODEL_EXAMPLE_RIVERAIN_PATIENT"
                },
                "partOf": {
                    "reference": "urn:uuid:FHIR_MODEL_EXAMPLE_RIVERAIN_IMAGINGSTUDY2"
                },
                "valueQuantity": {
                    "value": 13.9,
                    "unit": "mm",
                    "system": "UCUM",
                    "code": "millimeter"
                }
            },
            "request": {
                "method": "POST",
                "url": "urn:uuid:FHIR_MODEL_EXAMPLE_RIVERAIN_OBSERVATION2_2"
            }
        },
        {
            "fullUrl": "urn:uuid:FHIR_MODEL_EXAMPLE_RIVERAIN_OBSERVATION2_3",
            "resource": {
                "resourceType": "Observation",
                "meta": {
                    "profile": [
                        "http://hl7.org/fhir/dicom-sr/StructureDefinition/dicom-sr-observation"
                    ]
                },
                "text": {
                    "status": "generated"
                },
                "identifier": [
                    {
                        "use": "official",
                        "system": "DCM",
                        "value": "112039"
                    }
                ],
                "status": "preliminary",
                "focus": [{
                    "reference": "urn:uuid:FHIR_MODEL_EXAMPLE_RIVERAIN_BODYSTRUCTURE_lesion2"
                }],
                "code": {
                    "coding": [
                        {
                            "system": "RADLEX",
                            "code": "RID50155",
                            "display": "Diameter"
                        }
                    ]
                },
                "subject": {
                    "reference": "urn:uuid:FHIR_MODEL_EXAMPLE_RIVERAIN_PATIENT"
                },
                "partOf": {
                    "reference": "urn:uuid:FHIR_MODEL_EXAMPLE_RIVERAIN_IMAGINGSTUDY2"
                },
                "valueQuantity": {
                    "value": 17.8,
                    "unit": "mm",
                    "system": "UCUM",
                    "code": "millimeter"
                }
            },
            "request": {
                "method": "POST",
                "url": "urn:uuid:FHIR_MODEL_EXAMPLE_RIVERAIN_OBSERVATION2_3"
            }
        },
        {
            "fullUrl": "urn:uuid:FHIR_MODEL_EXAMPLE_RIVERAIN_OBSERVATION2_4",
            "resource": {
                "resourceType": "Observation",
                "meta": {
                    "profile": [
                        "http://hl7.org/fhir/dicom-sr/StructureDefinition/dicom-sr-observation"
                    ]
                },
                "text": {
                    "status": "generated"
                },
                "identifier": [
                    {
                        "use": "official",
                        "system": "DCM",
                        "value": "112039"
                    }
                ],
                "status": "preliminary",
                "focus": [{
                    "reference": "urn:uuid:FHIR_MODEL_EXAMPLE_RIVERAIN_BODYSTRUCTURE_lesion2"
                }],
                "code": {
                    "coding": [
                        {
                            "system": "99RMGSR",
                            "code": "99001",
                            "display": "Craniocaudal Diameter"
                        }
                    ]
                },
                "subject": {
                    "reference": "urn:uuid:FHIR_MODEL_EXAMPLE_RIVERAIN_PATIENT"
                },
                "partOf": {
                    "reference": "urn:uuid:FHIR_MODEL_EXAMPLE_RIVERAIN_IMAGINGSTUDY2"
                },
                "valueQuantity": {
                    "value": 24.0,
                    "unit": "mm",
                    "system": "UCUM",
                    "code": "millimeter"
                }
            },
            "request": {
                "method": "POST",
                "url": "urn:uuid:FHIR_MODEL_EXAMPLE_RIVERAIN_OBSERVATION2_4"
            }
        },
        {
            "fullUrl": "urn:uuid:FHIR_MODEL_EXAMPLE_RIVERAIN_OBSERVATION2_5",
            "resource": {
                "resourceType": "Observation",
                "meta": {
                    "profile": [
                        "http://hl7.org/fhir/dicom-sr/StructureDefinition/dicom-sr-observation"
                    ]
                },
                "text": {
                    "status": "generated"
                },
                "identifier": [
                    {
                        "use": "official",
                        "system": "DCM",
                        "value": "112039"
                    }
                ],
                "status": "preliminary",
                "focus": [{
                    "reference": "urn:uuid:FHIR_MODEL_EXAMPLE_RIVERAIN_BODYSTRUCTURE_lesion2"
                }],
                "code": {
                    "coding": [
                        {
                            "system": "RADLEX",
                            "code": "RID28668",
                            "display": "Volume"
                        }
                    ]
                },
                "subject": {
                    "reference": "urn:uuid:FHIR_MODEL_EXAMPLE_RIVERAIN_PATIENT"
                },
                "partOf": {
                    "reference": "urn:uuid:FHIR_MODEL_EXAMPLE_RIVERAIN_IMAGINGSTUDY2"
                },
                "valueQuantity": {
                    "value": 3675,
                    "unit": "mm3",
                    "system": "UCUM",
                    "code": "cubic millimeter"
                }
            },
            "request": {
                "method": "POST",
                "url": "urn:uuid:FHIR_MODEL_EXAMPLE_RIVERAIN_OBSERVATION2_5"
            }
        },
        {
            "fullUrl": "urn:uuid:FHIR_MODEL_EXAMPLE_RIVERAIN_OBSERVATION2_6",
            "resource": {
                "resourceType": "Observation",
                "meta": {
                    "profile": [
                        "http://hl7.org/fhir/dicom-sr/StructureDefinition/dicom-sr-observation"
                    ]
                },
                "text": {
                    "status": "generated"
                },
                "identifier": [
                    {
                        "use": "official",
                        "system": "DCM",
                        "value": "112039"
                    }
                ],
                "status": "preliminary",
                "focus": [{
                    "reference": "urn:uuid:FHIR_MODEL_EXAMPLE_RIVERAIN_BODYSTRUCTURE_lesion2"
                }],
                "code": {
                    "coding": [
                        {
                            "system": "RADLEX",
                            "code": "RID39166",
                            "display": "Density"
                        }
                    ]
                },
                "subject": {
                    "reference": "urn:uuid:FHIR_MODEL_EXAMPLE_RIVERAIN_PATIENT"
                },
                "partOf": {
                    "reference": "urn:uuid:FHIR_MODEL_EXAMPLE_RIVERAIN_IMAGINGSTUDY2"
                },
                "valueQuantity": {
                    "value": 16,
                    "unit": "HU",
                    "system": "UCUM",
                    "code": "Hounsfield units"
                }
            },
            "request": {
                "method": "POST",
                "url": "urn:uuid:FHIR_MODEL_EXAMPLE_RIVERAIN_OBSERVATION2_6"
            }
        },
        {
            "fullUrl": "urn:uuid:FHIR_MODEL_EXAMPLE_RIVERAIN_OBSERVATION2_7",
            "resource": {
                "resourceType": "Observation",
                "meta": {
                    "profile": [
                        "http://hl7.org/fhir/dicom-sr/StructureDefinition/dicom-sr-observation"
                    ]
                },
                "text": {
                    "status": "generated"
                },
                "identifier": [
                    {
                        "use": "official",
                        "system": "DCM",
                        "value": "112039"
                    }
                ],
                "status": "preliminary",
                "focus": [{
                    "reference": "urn:uuid:FHIR_MODEL_EXAMPLE_RIVERAIN_BODYSTRUCTURE_lesion2"
                }],
                "code": {
                    "coding": [
                        {
                            "system": "RADLEX",
                            "code": "Volume Change",
                            "display": "Volume Change"
                        }
                    ]
                },
                "subject": {
                    "reference": "urn:uuid:FHIR_MODEL_EXAMPLE_RIVERAIN_PATIENT"
                },
                "partOf": {
                    "reference": "urn:uuid:FHIR_MODEL_EXAMPLE_RIVERAIN_IMAGINGSTUDY2"
                },
                "valueQuantity": {
                    "value": 44.58,
                    "unit": "%",
                    "system": "UCUM",
                    "code": "Percentage"
                }
            },
            "request": {
                "method": "POST",
                "url": "urn:uuid:FHIR_MODEL_EXAMPLE_RIVERAIN_OBSERVATION2_7"
            }
        },
        {
            "fullUrl": "urn:uuid:FHIR_MODEL_EXAMPLE_RIVERAIN_OBSERVATION2_8",
            "resource": {
                "resourceType": "Observation",
                "meta": {
                    "profile": [
                        "http://hl7.org/fhir/dicom-sr/StructureDefinition/dicom-sr-observation"
                    ]
                },
                "text": {
                    "status": "generated"
                },
                "identifier": [
                    {
                        "use": "official",
                        "system": "DCM",
                        "value": "112039"
                    }
                ],
                "status": "preliminary",
                "focus": [{
                    "reference": "urn:uuid:FHIR_MODEL_EXAMPLE_RIVERAIN_BODYSTRUCTURE_lesion2"
                }],
                "code": {
                    "coding": [
                        {
                            "system": "RADLEX",
                            "code": "Volume Doubling Time",
                            "display": "Volume Doubling Time"
                        }
                    ]
                },
                "subject": {
                    "reference": "urn:uuid:FHIR_MODEL_EXAMPLE_RIVERAIN_PATIENT"
                },
                "partOf": {
                    "reference": "urn:uuid:FHIR_MODEL_EXAMPLE_RIVERAIN_IMAGINGSTUDY2"
                },
                "valueQuantity": {
                    "value": 115,
                    "unit": "day",
                    "system": "UCUM",
                    "code": "days"
                }
            },
            "request": {
                "method": "POST",
                "url": "urn:uuid:FHIR_MODEL_EXAMPLE_RIVERAIN_OBSERVATION2_8"
            }
        },
        {
            "fullUrl": "urn:uuid:FHIR_MODEL_EXAMPLE_OBSERVATION_LESION2",
            "resource": {
                "resourceType": "Observation",
                "partOf": [
                    {
                        "reference": "urn:uuid:FHIR_MODEL_EXAMPLE_RIVERAIN_IMAGINGSTUDY2"
                    }
                ],
                "status": "final",
                "category": [
                    {
                        "coding": [
                            {
                                "system": "http://terminology.hl7.org/CodeSystem/observation-category",
                                "version": "4.0.1",
                                "code": "imaging",
                                "display": "imaging"
                            }
                        ]
                    }
                ],
                "code": {
                    "coding": [
                        {
                            "system": "http://snomed.info/sct",
                            "code": "404684003",
                            "display": "Clinical finding"
                        }
                    ],
                    "text": "Clinical finding"
                },
                "subject": {
                    "reference": "urn:uuid:FHIR_MODEL_EXAMPLE_RIVERAIN_PATIENT"
                },
                "valueCodeableConcept": {
                    "coding": [
                        {
                            "system": "http://snomed.info/sct",
                            "code": "4147007",
                            "display": "Mass (morphologic abnormality)"
                        }
                    ]
                },
                "device": {
                    "reference": "urn:uuid:FHIR_MODEL_EXAMPLE_RIVERAIN_DEVICE"
                },
                "effectiveDateTime": "1998-03-03T10:05:00.000Z",
                "hasMember": [
                    {
                        "reference": "urn:uuid:FHIR_MODEL_EXAMPLE_RIVERAIN_OBSERVATION2_1"
                    },
                    {
                        "reference": "urn:uuid:FHIR_MODEL_EXAMPLE_RIVERAIN_OBSERVATION2_2"
                    },
                    {
                        "reference": "urn:uuid:FHIR_MODEL_EXAMPLE_RIVERAIN_OBSERVATION2_3"
                    },
                    {
                        "reference": "urn:uuid:FHIR_MODEL_EXAMPLE_RIVERAIN_OBSERVATION2_4"
                    },
                    {
                        "reference": "urn:uuid:FHIR_MODEL_EXAMPLE_RIVERAIN_OBSERVATION2_5"
                    },
                    {
                        "reference": "urn:uuid:FHIR_MODEL_EXAMPLE_RIVERAIN_OBSERVATION2_6"
                    },
                    {
                        "reference": "urn:uuid:FHIR_MODEL_EXAMPLE_RIVERAIN_OBSERVATION2_7"
                    },
                    {
                        "reference": "urn:uuid:FHIR_MODEL_EXAMPLE_RIVERAIN_OBSERVATION2_8"
                    }
                ]
            },
            "request": {
                "method": "POST",
                "url": "urn:uuid:FHIR_MODEL_EXAMPLE_OBSERVATION_LESION2"
            }
        },
        {
            "fullUrl": "urn:uuid:FHIR_MODEL_EXAMPLE_RIVERAIN_BODYSTRUCTURE_lesion3",
            "resource":{
                "resourceType":"BodyStructure",
                "identifier": [
                    {
                        "type": {
                            "text": "Tracking Identifier"
                        },
                        "system": "NCIt",
                        "value": "Lesion 3"
                    },
                    {
                        "type": {
                            "text": "Tracking Unique Identifier"
                        },
                        "system": "NCIt",
                        "value": "1.3.6.1.4.1.11157.102502.75.679691452995675.2039.1.3"
                    }
                ],
                "morphology": {
                    "coding": [
                        {
                            "system": "SCT",
                            "code": "52988006",
                            "display": "Lesion"
                        }
                    ]
                },
                "location": {
                    "coding": [
                        {
                            "system": "SCT",
                            "code": "42400003",
                            "display": "Upper lobe of right lung"
                        }
                    ]
                },
                "patient": {
                    "reference": "urn:uuid:FHIR_MODEL_EXAMPLE_RIVERAIN_PATIENT"
                }
            },
            "request": {
                "method": "PUT",
                "url": "urn:uuid:FHIR_MODEL_EXAMPLE_RIVERAIN_BODYSTRUCTURE_lesion3"
            }
        },
        {
            "fullUrl": "urn:uuid:FHIR_MODEL_EXAMPLE_RIVERAIN_OBSERVATION3_1",
            "resource": {
                "resourceType": "Observation",
                "meta": {
                    "profile": [
                        "http://hl7.org/fhir/dicom-sr/StructureDefinition/dicom-sr-observation"
                    ]
                },
                "text": {
                    "status": "generated"
                },
                "identifier": [
                    {
                        "use": "official",
                        "system": "DCM",
                        "value": "112039"
                    }
                ],
                "status": "preliminary",
                "focus": [{
                    "reference": "urn:uuid:FHIR_MODEL_EXAMPLE_RIVERAIN_BODYSTRUCTURE_lesion3"
                }],
                "code": {
                    "coding": [
                        {
                            "system": "SCT",
                            "code": "103339001",
                            "display": "Long Axis"
                        }
                    ]
                },
                "subject": {
                    "reference": "urn:uuid:FHIR_MODEL_EXAMPLE_RIVERAIN_PATIENT"
                },
                "partOf": {
                    "reference": "urn:uuid:FHIR_MODEL_EXAMPLE_RIVERAIN_IMAGINGSTUDY2"
                },
                "valueQuantity": {
                    "value": 11.1,
                    "unit": "mm",
                    "system": "UCUM",
                    "code": "millimeter"
                }
            },
            "request": {
                "method": "POST",
                "url": "urn:uuid:FHIR_MODEL_EXAMPLE_RIVERAIN_OBSERVATION3_1"
            }
        },
        {
            "fullUrl": "urn:uuid:FHIR_MODEL_EXAMPLE_RIVERAIN_OBSERVATION3_2",
            "resource": {
                "resourceType": "Observation",
                "meta": {
                    "profile": [
                        "http://hl7.org/fhir/dicom-sr/StructureDefinition/dicom-sr-observation"
                    ]
                },
                "text": {
                    "status": "generated"
                },
                "identifier": [
                    {
                        "use": "official",
                        "system": "DCM",
                        "value": "112039"
                    }
                ],
                "status": "preliminary",
                "focus": [{
                    "reference": "urn:uuid:FHIR_MODEL_EXAMPLE_RIVERAIN_BODYSTRUCTURE_lesion3"
                }],
                "code": {
                    "coding": [
                        {
                            "system": "SCT",
                            "code": "103340004",
                            "display": "Short Axis"
                        }
                    ]
                },
                "subject": {
                    "reference": "urn:uuid:FHIR_MODEL_EXAMPLE_RIVERAIN_PATIENT"
                },
                "partOf": {
                    "reference": "urn:uuid:FHIR_MODEL_EXAMPLE_RIVERAIN_IMAGINGSTUDY2"
                },
                "valueQuantity": {
                    "value": 8.6,
                    "unit": "mm",
                    "system": "UCUM",
                    "code": "millimeter"
                }
            },
            "request": {
                "method": "POST",
                "url": "urn:uuid:FHIR_MODEL_EXAMPLE_RIVERAIN_OBSERVATION3_2"
            }
        },
        {
            "fullUrl": "urn:uuid:FHIR_MODEL_EXAMPLE_RIVERAIN_OBSERVATION3_3",
            "resource": {
                "resourceType": "Observation",
                "meta": {
                    "profile": [
                        "http://hl7.org/fhir/dicom-sr/StructureDefinition/dicom-sr-observation"
                    ]
                },
                "text": {
                    "status": "generated"
                },
                "identifier": [
                    {
                        "use": "official",
                        "system": "DCM",
                        "value": "112039"
                    }
                ],
                "status": "preliminary",
                "focus": [{
                    "reference": "urn:uuid:FHIR_MODEL_EXAMPLE_RIVERAIN_BODYSTRUCTURE_lesion3"
                }],
                "code": {
                    "coding": [
                        {
                            "system": "RADLEX",
                            "code": "RID50155",
                            "display": "Diameter"
                        }
                    ]
                },
                "subject": {
                    "reference": "urn:uuid:FHIR_MODEL_EXAMPLE_RIVERAIN_PATIENT"
                },
                "partOf": {
                    "reference": "urn:uuid:FHIR_MODEL_EXAMPLE_RIVERAIN_IMAGINGSTUDY2"
                },
                "valueQuantity": {
                    "value": 9.9,
                    "unit": "mm",
                    "system": "UCUM",
                    "code": "millimeter"
                }
            },
            "request": {
                "method": "POST",
                "url": "urn:uuid:FHIR_MODEL_EXAMPLE_RIVERAIN_OBSERVATION3_3"
            }
        },
        {
            "fullUrl": "urn:uuid:FHIR_MODEL_EXAMPLE_RIVERAIN_OBSERVATION3_4",
            "resource": {
                "resourceType": "Observation",
                "meta": {
                    "profile": [
                        "http://hl7.org/fhir/dicom-sr/StructureDefinition/dicom-sr-observation"
                    ]
                },
                "text": {
                    "status": "generated"
                },
                "identifier": [
                    {
                        "use": "official",
                        "system": "DCM",
                        "value": "112039"
                    }
                ],
                "status": "preliminary",
                "focus": [{
                    "reference": "urn:uuid:FHIR_MODEL_EXAMPLE_RIVERAIN_BODYSTRUCTURE_lesion3"
                }],
                "code": {
                    "coding": [
                        {
                            "system": "99RMGSR",
                            "code": "99001",
                            "display": "Craniocaudal Diameter"
                        }
                    ]
                },
                "subject": {
                    "reference": "urn:uuid:FHIR_MODEL_EXAMPLE_RIVERAIN_PATIENT"
                },
                "partOf": {
                    "reference": "urn:uuid:FHIR_MODEL_EXAMPLE_RIVERAIN_IMAGINGSTUDY2"
                },
                "valueQuantity": {
                    "value": 15.0,
                    "unit": "mm",
                    "system": "UCUM",
                    "code": "millimeter"
                }
            },
            "request": {
                "method": "POST",
                "url": "urn:uuid:FHIR_MODEL_EXAMPLE_RIVERAIN_OBSERVATION3_4"
            }
        },
        {
            "fullUrl": "urn:uuid:FHIR_MODEL_EXAMPLE_RIVERAIN_OBSERVATION3_5",
            "resource": {
                "resourceType": "Observation",
                "meta": {
                    "profile": [
                        "http://hl7.org/fhir/dicom-sr/StructureDefinition/dicom-sr-observation"
                    ]
                },
                "text": {
                    "status": "generated"
                },
                "identifier": [
                    {
                        "use": "official",
                        "system": "DCM",
                        "value": "112039"
                    }
                ],
                "status": "preliminary",
                "focus": [{
                    "reference": "urn:uuid:FHIR_MODEL_EXAMPLE_RIVERAIN_BODYSTRUCTURE_lesion3"
                }],
                "code": {
                    "coding": [
                        {
                            "system": "RADLEX",
                            "code": "RID28668",
                            "display": "Volume"
                        }
                    ]
                },
                "subject": {
                    "reference": "urn:uuid:FHIR_MODEL_EXAMPLE_RIVERAIN_PATIENT"
                },
                "partOf": {
                    "reference": "urn:uuid:FHIR_MODEL_EXAMPLE_RIVERAIN_IMAGINGSTUDY2"
                },
                "valueQuantity": {
                    "value": 562,
                    "unit": "mm3",
                    "system": "UCUM",
                    "code": "cubic millimeter"
                }
            },
            "request": {
                "method": "POST",
                "url": "urn:uuid:FHIR_MODEL_EXAMPLE_RIVERAIN_OBSERVATION3_5"
            }
        },
        {
            "fullUrl": "urn:uuid:FHIR_MODEL_EXAMPLE_RIVERAIN_OBSERVATION3_6",
            "resource": {
                "resourceType": "Observation",
                "meta": {
                    "profile": [
                        "http://hl7.org/fhir/dicom-sr/StructureDefinition/dicom-sr-observation"
                    ]
                },
                "text": {
                    "status": "generated"
                },
                "identifier": [
                    {
                        "use": "official",
                        "system": "DCM",
                        "value": "112039"
                    }
                ],
                "status": "preliminary",
                "focus": [{
                    "reference": "urn:uuid:FHIR_MODEL_EXAMPLE_RIVERAIN_BODYSTRUCTURE_lesion3"
                }],
                "code": {
                    "coding": [
                        {
                            "system": "RADLEX",
                            "code": "RID39166",
                            "display": "Density"
                        }
                    ]
                },
                "subject": {
                    "reference": "urn:uuid:FHIR_MODEL_EXAMPLE_RIVERAIN_PATIENT"
                },
                "partOf": {
                    "reference": "urn:uuid:FHIR_MODEL_EXAMPLE_RIVERAIN_IMAGINGSTUDY2"
                },
                "valueQuantity": {
                    "value": -1,
                    "unit": "HU",
                    "system": "UCUM",
                    "code": "Hounsfield units"
                }
            },
            "request": {
                "method": "POST",
                "url": "urn:uuid:FHIR_MODEL_EXAMPLE_RIVERAIN_OBSERVATION3_6"
            }
        },
        {
            "fullUrl": "urn:uuid:FHIR_MODEL_EXAMPLE_OBSERVATION_LESION3",
            "resource": {
                "resourceType": "Observation",
                "partOf": [
                    {
                        "reference": "urn:uuid:FHIR_MODEL_EXAMPLE_RIVERAIN_IMAGINGSTUDY2"
                    }
                ],
                "status": "final",
                "category": [
                    {
                        "coding": [
                            {
                                "system": "http://terminology.hl7.org/CodeSystem/observation-category",
                                "version": "4.0.1",
                                "code": "imaging",
                                "display": "imaging"
                            }
                        ]
                    }
                ],
                "code": {
                    "coding": [
                        {
                            "system": "http://snomed.info/sct",
                            "code": "404684003",
                            "display": "Clinical finding"
                        }
                    ],
                    "text": "Clinical finding"
                },
                "subject": {
                    "reference": "urn:uuid:FHIR_MODEL_EXAMPLE_RIVERAIN_PATIENT"
                },
                "valueCodeableConcept": {
                    "coding": [
                        {
                            "system": "http://snomed.info/sct",
                            "code": "4147007",
                            "display": "Mass (morphologic abnormality)"
                        }
                    ]
                },
                "device": {
                    "reference": "urn:uuid:FHIR_MODEL_EXAMPLE_RIVERAIN_DEVICE"
                },
                "effectiveDateTime": "1998-03-03T10:05:00.000Z",
                "hasMember": [
                    {
                        "reference": "urn:uuid:FHIR_MODEL_EXAMPLE_RIVERAIN_OBSERVATION3_1"
                    },
                    {
                        "reference": "urn:uuid:FHIR_MODEL_EXAMPLE_RIVERAIN_OBSERVATION3_2"
                    },
                    {
                        "reference": "urn:uuid:FHIR_MODEL_EXAMPLE_RIVERAIN_OBSERVATION3_3"
                    },
                    {
                        "reference": "urn:uuid:FHIR_MODEL_EXAMPLE_RIVERAIN_OBSERVATION3_4"
                    },
                    {
                        "reference": "urn:uuid:FHIR_MODEL_EXAMPLE_RIVERAIN_OBSERVATION3_5"
                    },
                    {
                        "reference": "urn:uuid:FHIR_MODEL_EXAMPLE_RIVERAIN_OBSERVATION3_6"
                    }
                ]
            },
            "request": {
                "method": "POST",
                "url": "urn:uuid:FHIR_MODEL_EXAMPLE_OBSERVATION_LESION3"
            }
        },
        {
            "fullUrl": "urn:uuid:FHIR_MODEL_EXAMPLE_RIVERAIN_BODYSTRUCTURE_lesion4",
            "resource":{
                "resourceType":"BodyStructure",
                "identifier": [
                    {
                        "type": {
                            "text": "Tracking Identifier"
                        },
                        "system": "NCIt",
                        "value": "Lesion 4"
                    },
                    {
                        "type": {
                            "text": "Tracking Unique Identifier"
                        },
                        "system": "NCIt",
                        "value": "1.3.6.1.4.1.11157.102502.75.679691452995675.2039.1.4"
                    }
                ],
                "morphology": {
                    "coding": [
                        {
                            "system": "SCT",
                            "code": "52988006",
                            "display": "Lesion"
                        }
                    ]
                },
                "location": {
                    "coding": [
                        {
                            "system": "SCT",
                            "code": "266005",
                            "display": "Lower lobe of right lung"
                        }
                    ]
                },
                "patient": {
                    "reference": "urn:uuid:FHIR_MODEL_EXAMPLE_RIVERAIN_PATIENT"
                }
            },
            "request": {
                "method": "PUT",
                "url": "urn:uuid:FHIR_MODEL_EXAMPLE_RIVERAIN_BODYSTRUCTURE_lesion4"
            }
        },
        {
            "fullUrl": "urn:uuid:FHIR_MODEL_EXAMPLE_RIVERAIN_OBSERVATION4_1",
            "resource": {
                "resourceType": "Observation",
                "meta": {
                    "profile": [
                        "http://hl7.org/fhir/dicom-sr/StructureDefinition/dicom-sr-observation"
                    ]
                },
                "text": {
                    "status": "generated"
                },
                "identifier": [
                    {
                        "use": "official",
                        "system": "DCM",
                        "value": "112039"
                    }
                ],
                "status": "preliminary",
                "focus": [{
                    "reference": "urn:uuid:FHIR_MODEL_EXAMPLE_RIVERAIN_BODYSTRUCTURE_lesion4"
                }],
                "code": {
                    "coding": [
                        {
                            "system": "SCT",
                            "code": "103339001",
                            "display": "Long Axis"
                        }
                    ]
                },
                "subject": {
                    "reference": "urn:uuid:FHIR_MODEL_EXAMPLE_RIVERAIN_PATIENT"
                },
                "partOf": {
                    "reference": "urn:uuid:FHIR_MODEL_EXAMPLE_RIVERAIN_IMAGINGSTUDY2"
                },
                "valueQuantity": {
                    "value": 4.4,
                    "unit": "mm",
                    "system": "UCUM",
                    "code": "millimeter"
                }
            },
            "request": {
                "method": "POST",
                "url": "urn:uuid:FHIR_MODEL_EXAMPLE_RIVERAIN_OBSERVATION4_1"
            }
        },
        {
            "fullUrl": "urn:uuid:FHIR_MODEL_EXAMPLE_RIVERAIN_OBSERVATION4_2",
            "resource": {
                "resourceType": "Observation",
                "meta": {
                    "profile": [
                        "http://hl7.org/fhir/dicom-sr/StructureDefinition/dicom-sr-observation"
                    ]
                },
                "text": {
                    "status": "generated"
                },
                "identifier": [
                    {
                        "use": "official",
                        "system": "DCM",
                        "value": "112039"
                    }
                ],
                "status": "preliminary",
                "focus": [{
                    "reference": "urn:uuid:FHIR_MODEL_EXAMPLE_RIVERAIN_BODYSTRUCTURE_lesion4"
                }],
                "code": {
                    "coding": [
                        {
                            "system": "SCT",
                            "code": "103340004",
                            "display": "Short Axis"
                        }
                    ]
                },
                "subject": {
                    "reference": "urn:uuid:FHIR_MODEL_EXAMPLE_RIVERAIN_PATIENT"
                },
                "partOf": {
                    "reference": "urn:uuid:FHIR_MODEL_EXAMPLE_RIVERAIN_IMAGINGSTUDY2"
                },
                "valueQuantity": {
                    "value": 3.6,
                    "unit": "mm",
                    "system": "UCUM",
                    "code": "millimeter"
                }
            },
            "request": {
                "method": "POST",
                "url": "urn:uuid:FHIR_MODEL_EXAMPLE_RIVERAIN_OBSERVATION4_2"
            }
        },
        {
            "fullUrl": "urn:uuid:FHIR_MODEL_EXAMPLE_RIVERAIN_OBSERVATION4_3",
            "resource": {
                "resourceType": "Observation",
                "meta": {
                    "profile": [
                        "http://hl7.org/fhir/dicom-sr/StructureDefinition/dicom-sr-observation"
                    ]
                },
                "text": {
                    "status": "generated"
                },
                "identifier": [
                    {
                        "use": "official",
                        "system": "DCM",
                        "value": "112039"
                    }
                ],
                "status": "preliminary",
                "focus": [{
                    "reference": "urn:uuid:FHIR_MODEL_EXAMPLE_RIVERAIN_BODYSTRUCTURE_lesion4"
                }],
                "code": {
                    "coding": [
                        {
                            "system": "RADLEX",
                            "code": "RID50155",
                            "display": "Diameter"
                        }
                    ]
                },
                "subject": {
                    "reference": "urn:uuid:FHIR_MODEL_EXAMPLE_RIVERAIN_PATIENT"
                },
                "partOf": {
                    "reference": "urn:uuid:FHIR_MODEL_EXAMPLE_RIVERAIN_IMAGINGSTUDY2"
                },
                "valueQuantity": {
                    "value": 4.0,
                    "unit": "mm",
                    "system": "UCUM",
                    "code": "millimeter"
                }
            },
            "request": {
                "method": "POST",
                "url": "urn:uuid:FHIR_MODEL_EXAMPLE_RIVERAIN_OBSERVATION4_3"
            }
        },
        {
            "fullUrl": "urn:uuid:FHIR_MODEL_EXAMPLE_RIVERAIN_OBSERVATION4_4",
            "resource": {
                "resourceType": "Observation",
                "meta": {
                    "profile": [
                        "http://hl7.org/fhir/dicom-sr/StructureDefinition/dicom-sr-observation"
                    ]
                },
                "text": {
                    "status": "generated"
                },
                "identifier": [
                    {
                        "use": "official",
                        "system": "DCM",
                        "value": "112039"
                    }
                ],
                "status": "preliminary",
                "focus": [{
                    "reference": "urn:uuid:FHIR_MODEL_EXAMPLE_RIVERAIN_BODYSTRUCTURE_lesion4"
                }],
                "code": {
                    "coding": [
                        {
                            "system": "99RMGSR",
                            "code": "99001",
                            "display": "Craniocaudal Diameter"
                        }
                    ]
                },
                "subject": {
                    "reference": "urn:uuid:FHIR_MODEL_EXAMPLE_RIVERAIN_PATIENT"
                },
                "partOf": {
                    "reference": "urn:uuid:FHIR_MODEL_EXAMPLE_RIVERAIN_IMAGINGSTUDY2"
                },
                "valueQuantity": {
                    "value": 9.0,
                    "unit": "mm",
                    "system": "UCUM",
                    "code": "millimeter"
                }
            },
            "request": {
                "method": "POST",
                "url": "urn:uuid:FHIR_MODEL_EXAMPLE_RIVERAIN_OBSERVATION4_4"
            }
        },
        {
            "fullUrl": "urn:uuid:FHIR_MODEL_EXAMPLE_RIVERAIN_OBSERVATION4_5",
            "resource": {
                "resourceType": "Observation",
                "meta": {
                    "profile": [
                        "http://hl7.org/fhir/dicom-sr/StructureDefinition/dicom-sr-observation"
                    ]
                },
                "text": {
                    "status": "generated"
                },
                "identifier": [
                    {
                        "use": "official",
                        "system": "DCM",
                        "value": "112039"
                    }
                ],
                "status": "preliminary",
                "focus": [{
                    "reference": "urn:uuid:FHIR_MODEL_EXAMPLE_RIVERAIN_BODYSTRUCTURE_lesion4"
                }],
                "code": {
                    "coding": [
                        {
                            "system": "RADLEX",
                            "code": "RID28668",
                            "display": "Volume"
                        }
                    ]
                },
                "subject": {
                    "reference": "urn:uuid:FHIR_MODEL_EXAMPLE_RIVERAIN_PATIENT"
                },
                "partOf": {
                    "reference": "urn:uuid:FHIR_MODEL_EXAMPLE_RIVERAIN_IMAGINGSTUDY2"
                },
                "valueQuantity": {
                    "value": 82,
                    "unit": "mm3",
                    "system": "UCUM",
                    "code": "cubic millimeter"
                }
            },
            "request": {
                "method": "POST",
                "url": "urn:uuid:FHIR_MODEL_EXAMPLE_RIVERAIN_OBSERVATION4_5"
            }
        },
        {
            "fullUrl": "urn:uuid:FHIR_MODEL_EXAMPLE_RIVERAIN_OBSERVATION4_6",
            "resource": {
                "resourceType": "Observation",
                "meta": {
                    "profile": [
                        "http://hl7.org/fhir/dicom-sr/StructureDefinition/dicom-sr-observation"
                    ]
                },
                "text": {
                    "status": "generated"
                },
                "identifier": [
                    {
                        "use": "official",
                        "system": "DCM",
                        "value": "112039"
                    }
                ],
                "status": "preliminary",
                "focus": [{
                    "reference": "urn:uuid:FHIR_MODEL_EXAMPLE_RIVERAIN_BODYSTRUCTURE_lesion4"
                }],
                "code": {
                    "coding": [
                        {
                            "system": "RADLEX",
                            "code": "RID39166",
                            "display": "Density"
                        }
                    ]
                },
                "subject": {
                    "reference": "urn:uuid:FHIR_MODEL_EXAMPLE_RIVERAIN_PATIENT"
                },
                "partOf": {
                    "reference": "urn:uuid:FHIR_MODEL_EXAMPLE_RIVERAIN_IMAGINGSTUDY2"
                },
                "valueQuantity": {
                    "value": 134,
                    "unit": "HU",
                    "system": "UCUM",
                    "code": "Hounsfield units"
                }
            },
            "request": {
                "method": "POST",
                "url": "urn:uuid:FHIR_MODEL_EXAMPLE_RIVERAIN_OBSERVATION4_6"
            }
        },
        {
            "fullUrl": "urn:uuid:FHIR_MODEL_EXAMPLE_RIVERAIN_OBSERVATION4_7",
            "resource": {
                "resourceType": "Observation",
                "meta": {
                    "profile": [
                        "http://hl7.org/fhir/dicom-sr/StructureDefinition/dicom-sr-observation"
                    ]
                },
                "text": {
                    "status": "generated"
                },
                "identifier": [
                    {
                        "use": "official",
                        "system": "DCM",
                        "value": "112039"
                    }
                ],
                "status": "preliminary",
                "focus": [{
                    "reference": "urn:uuid:FHIR_MODEL_EXAMPLE_RIVERAIN_BODYSTRUCTURE_lesion4"
                }],
                "code": {
                    "coding": [
                        {
                            "system": "RADLEX",
                            "code": "Volume Change",
                            "display": "Volume Change"
                        }
                    ]
                },
                "subject": {
                    "reference": "urn:uuid:FHIR_MODEL_EXAMPLE_RIVERAIN_PATIENT"
                },
                "partOf": {
                    "reference": "urn:uuid:FHIR_MODEL_EXAMPLE_RIVERAIN_IMAGINGSTUDY2"
                },
                "valueQuantity": {
                    "value": -23.30,
                    "unit": "%",
                    "system": "UCUM",
                    "code": "Percentage"
                }
            },
            "request": {
                "method": "POST",
                "url": "urn:uuid:FHIR_MODEL_EXAMPLE_RIVERAIN_OBSERVATION4_7"
            }
        },
        {
            "fullUrl": "urn:uuid:FHIR_MODEL_EXAMPLE_RIVERAIN_OBSERVATION4_8",
            "resource": {
                "resourceType": "Observation",
                "meta": {
                    "profile": [
                        "http://hl7.org/fhir/dicom-sr/StructureDefinition/dicom-sr-observation"
                    ]
                },
                "text": {
                    "status": "generated"
                },
                "identifier": [
                    {
                        "use": "official",
                        "system": "DCM",
                        "value": "112039"
                    }
                ],
                "status": "preliminary",
                "focus": [{
                    "reference": "urn:uuid:FHIR_MODEL_EXAMPLE_RIVERAIN_BODYSTRUCTURE_lesion4"
                }],
                "code": {
                    "coding": [
                        {
                            "system": "RADLEX",
                            "code": "Volume Doubling Time",
                            "display": "Volume Doubling Time"
                        }
                    ]
                },
                "subject": {
                    "reference": "urn:uuid:FHIR_MODEL_EXAMPLE_RIVERAIN_PATIENT"
                },
                "partOf": {
                    "reference": "urn:uuid:FHIR_MODEL_EXAMPLE_RIVERAIN_IMAGINGSTUDY2"
                },
                "valueQuantity": {
                    "value": -159,
                    "unit": "day",
                    "system": "UCUM",
                    "code": "days"
                }
            },
            "request": {
                "method": "POST",
                "url": "urn:uuid:FHIR_MODEL_EXAMPLE_RIVERAIN_OBSERVATION4_8"
            }
        },
        {
            "fullUrl": "urn:uuid:FHIR_MODEL_EXAMPLE_OBSERVATION_LESION4",
            "resource": {
                "resourceType": "Observation",
                "partOf": [
                    {
                        "reference": "urn:uuid:FHIR_MODEL_EXAMPLE_RIVERAIN_IMAGINGSTUDY2"
                    }
                ],
                "status": "final",
                "category": [
                    {
                        "coding": [
                            {
                                "system": "http://terminology.hl7.org/CodeSystem/observation-category",
                                "version": "4.0.1",
                                "code": "imaging",
                                "display": "imaging"
                            }
                        ]
                    }
                ],
                "code": {
                    "coding": [
                        {
                            "system": "http://snomed.info/sct",
                            "code": "404684003",
                            "display": "Clinical finding"
                        }
                    ],
                    "text": "Clinical finding"
                },
                "subject": {
                    "reference": "urn:uuid:FHIR_MODEL_EXAMPLE_RIVERAIN_PATIENT"
                },
                "valueCodeableConcept": {
                    "coding": [
                        {
                            "system": "http://snomed.info/sct",
                            "code": "4147007",
                            "display": "Mass (morphologic abnormality)"
                        }
                    ]
                },
                "device": {
                    "reference": "urn:uuid:FHIR_MODEL_EXAMPLE_RIVERAIN_DEVICE"
                },
                "effectiveDateTime": "1998-03-03T10:05:00.000Z",
                "hasMember": [
                    {
                        "reference": "urn:uuid:FHIR_MODEL_EXAMPLE_RIVERAIN_OBSERVATION4_1"
                    },
                    {
                        "reference": "urn:uuid:FHIR_MODEL_EXAMPLE_RIVERAIN_OBSERVATION4_2"
                    },
                    {
                        "reference": "urn:uuid:FHIR_MODEL_EXAMPLE_RIVERAIN_OBSERVATION4_3"
                    },
                    {
                        "reference": "urn:uuid:FHIR_MODEL_EXAMPLE_RIVERAIN_OBSERVATION4_4"
                    },
                    {
                        "reference": "urn:uuid:FHIR_MODEL_EXAMPLE_RIVERAIN_OBSERVATION4_5"
                    },
                    {
                        "reference": "urn:uuid:FHIR_MODEL_EXAMPLE_RIVERAIN_OBSERVATION4_6"
                    },
                    {
                        "reference": "urn:uuid:FHIR_MODEL_EXAMPLE_RIVERAIN_OBSERVATION4_7"
                    },
                    {
                        "reference": "urn:uuid:FHIR_MODEL_EXAMPLE_RIVERAIN_OBSERVATION4_8"
                    }
                ]
            },
            "request": {
                "method": "POST",
                "url": "urn:uuid:FHIR_MODEL_EXAMPLE_OBSERVATION_LESION4"
            }
        },
        {
            "fullUrl": "urn:uuid:FHIR_MODEL_EXAMPLE_RIVERAIN_BODYSTRUCTURE_lesion5",
            "resource":{
                "resourceType":"BodyStructure",
                "identifier": [
                    {
                        "type": {
                            "text": "Tracking Identifier"
                        },
                        "system": "NCIt",
                        "value": "Lesion 5"
                    },
                    {
                        "type": {
                            "text": "Tracking Unique Identifier"
                        },
                        "system": "NCIt",
                        "value": "1.3.6.1.4.1.11157.102502.75.679691452995675.2039.1.5"
                    }
                ],
                "morphology": {
                    "coding": [
                        {
                            "system": "SCT",
                            "code": "52988006",
                            "display": "Lesion"
                        }
                    ]
                },
                "location": {
                    "coding": [
                        {
                            "system": "SCT",
                            "code": "41224006",
                            "display": "Lower lobe of left lung"
                        }
                    ]
                },
                "patient": {
                    "reference": "urn:uuid:FHIR_MODEL_EXAMPLE_RIVERAIN_PATIENT"
                }
            },
            "request": {
                "method": "PUT",
                "url": "urn:uuid:FHIR_MODEL_EXAMPLE_RIVERAIN_BODYSTRUCTURE_lesion5"
            }
        },
        {
            "fullUrl": "urn:uuid:FHIR_MODEL_EXAMPLE_RIVERAIN_OBSERVATION5_1",
            "resource": {
                "resourceType": "Observation",
                "meta": {
                    "profile": [
                        "http://hl7.org/fhir/dicom-sr/StructureDefinition/dicom-sr-observation"
                    ]
                },
                "text": {
                    "status": "generated"
                },
                "identifier": [
                    {
                        "use": "official",
                        "system": "DCM",
                        "value": "112039"
                    }
                ],
                "status": "preliminary",
                "focus": [{
                    "reference": "urn:uuid:FHIR_MODEL_EXAMPLE_RIVERAIN_BODYSTRUCTURE_lesion5"
                }],
                "code": {
                    "coding": [
                        {
                            "system": "SCT",
                            "code": "103339001",
                            "display": "Long Axis"
                        }
                    ]
                },
                "subject": {
                    "reference": "urn:uuid:FHIR_MODEL_EXAMPLE_RIVERAIN_PATIENT"
                },
                "partOf": {
                    "reference": "urn:uuid:FHIR_MODEL_EXAMPLE_RIVERAIN_IMAGINGSTUDY2"
                },
                "valueQuantity": {
                    "value": 3.9,
                    "unit": "mm",
                    "system": "UCUM",
                    "code": "millimeter"
                }
            },
            "request": {
                "method": "POST",
                "url": "urn:uuid:FHIR_MODEL_EXAMPLE_RIVERAIN_OBSERVATION5_1"
            }
        },
        {
            "fullUrl": "urn:uuid:FHIR_MODEL_EXAMPLE_RIVERAIN_OBSERVATION5_2",
            "resource": {
                "resourceType": "Observation",
                "meta": {
                    "profile": [
                        "http://hl7.org/fhir/dicom-sr/StructureDefinition/dicom-sr-observation"
                    ]
                },
                "text": {
                    "status": "generated"
                },
                "identifier": [
                    {
                        "use": "official",
                        "system": "DCM",
                        "value": "112039"
                    }
                ],
                "status": "preliminary",
                "focus": [{
                    "reference": "urn:uuid:FHIR_MODEL_EXAMPLE_RIVERAIN_BODYSTRUCTURE_lesion5"
                }],
                "code": {
                    "coding": [
                        {
                            "system": "SCT",
                            "code": "103340004",
                            "display": "Short Axis"
                        }
                    ]
                },
                "subject": {
                    "reference": "urn:uuid:FHIR_MODEL_EXAMPLE_RIVERAIN_PATIENT"
                },
                "partOf": {
                    "reference": "urn:uuid:FHIR_MODEL_EXAMPLE_RIVERAIN_IMAGINGSTUDY2"
                },
                "valueQuantity": {
                    "value": 3.3,
                    "unit": "mm",
                    "system": "UCUM",
                    "code": "millimeter"
                }
            },
            "request": {
                "method": "POST",
                "url": "urn:uuid:FHIR_MODEL_EXAMPLE_RIVERAIN_OBSERVATION5_2"
            }
        },
        {
            "fullUrl": "urn:uuid:FHIR_MODEL_EXAMPLE_RIVERAIN_OBSERVATION5_3",
            "resource": {
                "resourceType": "Observation",
                "meta": {
                    "profile": [
                        "http://hl7.org/fhir/dicom-sr/StructureDefinition/dicom-sr-observation"
                    ]
                },
                "text": {
                    "status": "generated"
                },
                "identifier": [
                    {
                        "use": "official",
                        "system": "DCM",
                        "value": "112039"
                    }
                ],
                "status": "preliminary",
                "focus": [{
                    "reference": "urn:uuid:FHIR_MODEL_EXAMPLE_RIVERAIN_BODYSTRUCTURE_lesion5"
                }],
                "code": {
                    "coding": [
                        {
                            "system": "RADLEX",
                            "code": "RID50155",
                            "display": "Diameter"
                        }
                    ]
                },
                "subject": {
                    "reference": "urn:uuid:FHIR_MODEL_EXAMPLE_RIVERAIN_PATIENT"
                },
                "partOf": {
                    "reference": "urn:uuid:FHIR_MODEL_EXAMPLE_RIVERAIN_IMAGINGSTUDY2"
                },
                "valueQuantity": {
                    "value": 3.6,
                    "unit": "mm",
                    "system": "UCUM",
                    "code": "millimeter"
                }
            },
            "request": {
                "method": "POST",
                "url": "urn:uuid:FHIR_MODEL_EXAMPLE_RIVERAIN_OBSERVATION4_3"
            }
        },
        {
            "fullUrl": "urn:uuid:FHIR_MODEL_EXAMPLE_RIVERAIN_OBSERVATION5_4",
            "resource": {
                "resourceType": "Observation",
                "meta": {
                    "profile": [
                        "http://hl7.org/fhir/dicom-sr/StructureDefinition/dicom-sr-observation"
                    ]
                },
                "text": {
                    "status": "generated"
                },
                "identifier": [
                    {
                        "use": "official",
                        "system": "DCM",
                        "value": "112039"
                    }
                ],
                "status": "preliminary",
                "focus": [{
                    "reference": "urn:uuid:FHIR_MODEL_EXAMPLE_RIVERAIN_BODYSTRUCTURE_lesion5"
                }],
                "code": {
                    "coding": [
                        {
                            "system": "99RMGSR",
                            "code": "99001",
                            "display": "Craniocaudal Diameter"
                        }
                    ]
                },
                "subject": {
                    "reference": "urn:uuid:FHIR_MODEL_EXAMPLE_RIVERAIN_PATIENT"
                },
                "partOf": {
                    "reference": "urn:uuid:FHIR_MODEL_EXAMPLE_RIVERAIN_IMAGINGSTUDY2"
                },
                "valueQuantity": {
                    "value": 6.0,
                    "unit": "mm",
                    "system": "UCUM",
                    "code": "millimeter"
                }
            },
            "request": {
                "method": "POST",
                "url": "urn:uuid:FHIR_MODEL_EXAMPLE_RIVERAIN_OBSERVATION5_4"
            }
        },
        {
            "fullUrl": "urn:uuid:FHIR_MODEL_EXAMPLE_RIVERAIN_OBSERVATION5_5",
            "resource": {
                "resourceType": "Observation",
                "meta": {
                    "profile": [
                        "http://hl7.org/fhir/dicom-sr/StructureDefinition/dicom-sr-observation"
                    ]
                },
                "text": {
                    "status": "generated"
                },
                "identifier": [
                    {
                        "use": "official",
                        "system": "DCM",
                        "value": "112039"
                    }
                ],
                "status": "preliminary",
                "focus": [{
                    "reference": "urn:uuid:FHIR_MODEL_EXAMPLE_RIVERAIN_BODYSTRUCTURE_lesion5"
                }],
                "code": {
                    "coding": [
                        {
                            "system": "RADLEX",
                            "code": "RID28668",
                            "display": "Volume"
                        }
                    ]
                },
                "subject": {
                    "reference": "urn:uuid:FHIR_MODEL_EXAMPLE_RIVERAIN_PATIENT"
                },
                "partOf": {
                    "reference": "urn:uuid:FHIR_MODEL_EXAMPLE_RIVERAIN_IMAGINGSTUDY2"
                },
                "valueQuantity": {
                    "value": 72,
                    "unit": "mm3",
                    "system": "UCUM",
                    "code": "cubic millimeter"
                }
            },
            "request": {
                "method": "POST",
                "url": "urn:uuid:FHIR_MODEL_EXAMPLE_RIVERAIN_OBSERVATION5_5"
            }
        },
        {
            "fullUrl": "urn:uuid:FHIR_MODEL_EXAMPLE_RIVERAIN_OBSERVATION5_6",
            "resource": {
                "resourceType": "Observation",
                "meta": {
                    "profile": [
                        "http://hl7.org/fhir/dicom-sr/StructureDefinition/dicom-sr-observation"
                    ]
                },
                "text": {
                    "status": "generated"
                },
                "identifier": [
                    {
                        "use": "official",
                        "system": "DCM",
                        "value": "112039"
                    }
                ],
                "status": "preliminary",
                "focus": [{
                    "reference": "urn:uuid:FHIR_MODEL_EXAMPLE_RIVERAIN_BODYSTRUCTURE_lesion5"
                }],
                "code": {
                    "coding": [
                        {
                            "system": "RADLEX",
                            "code": "RID39166",
                            "display": "Density"
                        }
                    ]
                },
                "subject": {
                    "reference": "urn:uuid:FHIR_MODEL_EXAMPLE_RIVERAIN_PATIENT"
                },
                "partOf": {
                    "reference": "urn:uuid:FHIR_MODEL_EXAMPLE_RIVERAIN_IMAGINGSTUDY2"
                },
                "valueQuantity": {
                    "value": -33,
                    "unit": "HU",
                    "system": "UCUM",
                    "code": "Hounsfield units"
                }
            },
            "request": {
                "method": "POST",
                "url": "urn:uuid:FHIR_MODEL_EXAMPLE_RIVERAIN_OBSERVATION5_6"
            }
        },
        {
            "fullUrl": "urn:uuid:FHIR_MODEL_EXAMPLE_OBSERVATION_LESION5",
            "resource": {
                "resourceType": "Observation",
                "partOf": [
                    {
                        "reference": "urn:uuid:FHIR_MODEL_EXAMPLE_RIVERAIN_IMAGINGSTUDY2"
                    }
                ],
                "status": "final",
                "category": [
                    {
                        "coding": [
                            {
                                "system": "http://terminology.hl7.org/CodeSystem/observation-category",
                                "version": "4.0.1",
                                "code": "imaging",
                                "display": "imaging"
                            }
                        ]
                    }
                ],
                "code": {
                    "coding": [
                        {
                            "system": "http://snomed.info/sct",
                            "code": "404684003",
                            "display": "Clinical finding"
                        }
                    ],
                    "text": "Clinical finding"
                },
                "subject": {
                    "reference": "urn:uuid:FHIR_MODEL_EXAMPLE_RIVERAIN_PATIENT"
                },
                "valueCodeableConcept": {
                    "coding": [
                        {
                            "system": "http://snomed.info/sct",
                            "code": "4147007",
                            "display": "Mass (morphologic abnormality)"
                        }
                    ]
                },
                "device": {
                    "reference": "urn:uuid:FHIR_MODEL_EXAMPLE_RIVERAIN_DEVICE"
                },
                "effectiveDateTime": "1998-03-03T10:05:00.000Z",
                "hasMember": [
                    {
                        "reference": "urn:uuid:FHIR_MODEL_EXAMPLE_RIVERAIN_OBSERVATION5_1"
                    },
                    {
                        "reference": "urn:uuid:FHIR_MODEL_EXAMPLE_RIVERAIN_OBSERVATION5_2"
                    },
                    {
                        "reference": "urn:uuid:FHIR_MODEL_EXAMPLE_RIVERAIN_OBSERVATION5_3"
                    },
                    {
                        "reference": "urn:uuid:FHIR_MODEL_EXAMPLE_RIVERAIN_OBSERVATION5_4"
                    },
                    {
                        "reference": "urn:uuid:FHIR_MODEL_EXAMPLE_RIVERAIN_OBSERVATION5_5"
                    },
                    {
                        "reference": "urn:uuid:FHIR_MODEL_EXAMPLE_RIVERAIN_OBSERVATION5_6"
                    }
                ]
            },
            "request": {
                "method": "POST",
                "url": "urn:uuid:FHIR_MODEL_EXAMPLE_OBSERVATION_LESION5"
            }
        }
    ]
}