{
    "resourceType":"Patient",
    "name": [
        {
            "use": "official",
            "given": ["COVDI19"],
            "family": "Gleamer"
        }
    ],
    "gender": "male",
    "birthDate": "0000-00-00"
},
{
    "resourceType": "BodyStructure",
    "id": "Lung",
    "identifier": [
        {
         "system": "http://philips.com/integrated-diagnostics/lungq_covid19",
         "value": "12345"
        }
    ],
    "location": {
        "coding": [
            {
             "system": "http://snomed.info/sct",
             "code": "39607008",
             "display": "Entire lung structure (body structure)"
            }
        ]
    }
}
{
   "resourceType":"BodyStructure",
   "id": "RUL",
   "identifier": [
       {
        "system": "http://philips.com/integrated-diagnostics/lungq_covid19",
        "value": "12345"
       }
   ],
   "location": {
       "coding": [
           {
            "system": "http://snomed.info/sct",
            "code": "361969002",
            "display": "Entire right upper lobe of lung (body structure)"
           }
       ], 
       "text": "RUL: Right Upper Lobe"
   } 
},
{
    "resourceType":"BodyStructure",
    "id": "RML",
    "identifier": [
        {
         "system": "http://philips.com/integrated-diagnostics/lungq_covid19",
         "value": "12345"
        }
    ],
    "location": {
        "coding": [
            {
             "system": "http://snomed.info/sct",
             "code": "361973004",
             "display": "Entire middle lobe of right lung (body structure)"
            }
        ], 
        "text": "RML: Right Middle Lobe"
    } 
},
{
    "resourceType":"BodyStructure",
    "id": "RLL",
    "identifier": [
        {
         "system": "http://philips.com/integrated-diagnostics/lungq_covid19",
         "value": "12345"
        }
    ],
    "location": {
        "coding": [
            {
             "system": "http://snomed.info/sct",
             "code": "361976007",
             "display": "Right lower lobe of lung (body structure)"
            }
        ], 
        "text": "RLL: Right Lower Lobe"
    } 
},
{
    "resourceType":"BodyStructure",
    "id": "LUL",
    "identifier": [
        {
         "system": "http://philips.com/integrated-diagnostics/lungq_covid19",
         "value": "12345"
        }
    ],
    "location": {
        "coding": [
            {
             "system": "http://snomed.info/sct",
             "code": "361984006",
             "display": "Entire upper lobe of left lung (body structure)"
            }
        ], 
        "text": "LUL: Left Upper Lobe"
    } 
},
{
    "resourceType":"BodyStructure",
    "id": "LLL",
    "identifier": [
        {
         "system": "http://philips.com/integrated-diagnostics/lungq_covid19",
         "value": "12345"
        }
    ],
    "location": {
        "coding": [
            {
             "system": "http://snomed.info/sct",
             "code": "361989001",
             "display": "Entire lower lobe of left lung (body structure)"
            }
        ], 
        "text": "LLL: Left Lower Lobe"
    } 
},
{
    "request":{
        "method": "PUT",
        "url": "Observation?identifier=temp|Observation_..."
    },
    "fullurl": "urn.uuid:FHIR_MODEL_EXAMPLE_OBSERVATION_..",
    "resource":{
        "resourceType": "Observation",
        "status": "final",
        "focus": [{
            "reference": "BodyStructure/Lung"
        }],
        "category": [
            {
                "coding": [
                    {
                        "system": "http://terminology.hl7.org/CodeSystem/observation-category",
                        "code": "Overall_CT_Assessment",
                        "display": "Overall CT Assessment"
                    }
                ],
                "text": "Overall CT Assessment"
            }
        ],
        "code":{
            "coding": [
                {
                    "system": "http://terminology.hl7.org/CodeSystem/observation-category",
                    "code": "Severity_Score",
                    "display": "Severity Score (0-25)"
                }
            ],
            "text": "Severity Score (0-25)"
        },
        "subject": {
            "reference": "Patient/COVID19 Gleamer"
        },
        "effectiveDateTime": "20xx-xx-xx",
        "valueQuantity": {
            "value": 12,
            "unit": "",
            "system": "http://unitofmeasure.org",
            "code": ""
        },
        "referenceRange": [
            {
                "low": {
                    "value": 0
                },
                "high": {
                    "value": 25
                }
            }
        ]
    }
},
{
    "request":{
        "method": "PUT",
        "url": "Observation?identifier=temp|Observation_..."
    },
    "fullurl": "urn.uuid:FHIR_MODEL_EXAMPLE_OBSERVATION_..",
    "resource":{
        "resourceType": "Observation",
        "status": "final",
        "focus": [{
            "reference": "BodyStructure/Lung"
        }],
        "category": [
            {
                "coding": [
                    {
                        "system": "http://terminology.hl7.org/CodeSystem/observation-category",
                        "code": "Overall_CT_Assessment",
                        "display": "Overall CT Assessment"
                    }
                ],
                "text": "Overall CT Assessment"
            }
        ],
        "code":{
            "coding": [
                {
                    "system": "http://terminology.hl7.org/CodeSystem/observation-category",
                    "code": "Affected_Area",
                    "display": "Affected Area (%)"
                }
            ],
            "text": "Affected Area"
        },
        "subject": {
            "reference": "Patient/COVID19 Gleamer"
        },
        "effectiveDateTime": "20xx-xx-xx",
        "valueQuantity": {
            "value": 25.6,
            "unit": "%",
            "system": "http://unitofmeasure.org",
            "code": "%"
        }
    }
},
{
    "request":{
        "method": "PUT",
        "url": "Observation?identifier=temp|Observation_..."
    },
    "fullurl": "urn.uuid:FHIR_MODEL_EXAMPLE_OBSERVATION_..",
    "resource":{
        "resourceType": "Observation",
        "status": "final",
        "focus": [{
            "reference": "BodyStructure/RUL",
            "display": "RUL (Right Upper Lobe)"
        }],
        "category": [
            {
                "coding": [
                    {
                        "system": "http://terminology.hl7.org/CodeSystem/observation-category",
                        "code": "Lobar_CT_Assessment",
                        "display": "Lobar CT Assessment"
                    }
                ],
                "text": "Lobar CT Assessment"
            }
        ],
        "code":{
            "coding": [
                {
                    "system": "http://terminology.hl7.org/CodeSystem/observation-category",
                    "code": "Lobe_Volume",
                    "display": "Lobe Volume"
                }
            ],
            "text": "Lobe Volume"
        },
        "subject": {
            "reference": "Patient/COVID19 Gleamer"
        },
        "effectiveDateTime": "20xx-xx-xx",
        "valueQuantity": {
            "value": 679,
            "unit": "ml",
            "system": "http://unitofmeasure.org",
            "code": "ml"
        }
    }
},
{
    "request":{
        "method": "PUT",
        "url": "Observation?identifier=temp|Observation_..."
    },
    "fullurl": "urn.uuid:FHIR_MODEL_EXAMPLE_OBSERVATION_..",
    "resource":{
        "resourceType": "Observation",
        "status": "final",
        "focus": [{
            "reference": "BodyStructure/RUL",
            "display": "RML (Right Middle Lobe)"
        }],
        "category": [
            {
                "coding": [
                    {
                        "system": "http://terminology.hl7.org/CodeSystem/observation-category",
                        "code": "Lobar_CT_Assessment",
                        "display": "Lobar CT Assessment"
                    }
                ],
                "text": "Lobar CT Assessment"
            }
        ],
        "code":{
            "coding": [
                {
                    "system": "http://terminology.hl7.org/CodeSystem/observation-category",
                    "code": "Lobe_Volume",
                    "display": "Lobe Volume"
                }
            ],
            "text": "Lobe Volume"
        },
        "subject": {
            "reference": "Patient/COVID19 Gleamer"
        },
        "effectiveDateTime": "20xx-xx-xx",
        "valueQuantity": {
            "value": 296,
            "unit": "ml",
            "system": "http://unitofmeasure.org",
            "code": "ml"
        }
    }
},
{
    "request":{
        "method": "PUT",
        "url": "Observation?identifier=temp|Observation_..."
    },
    "fullurl": "urn.uuid:FHIR_MODEL_EXAMPLE_OBSERVATION_..",
    "resource":{
        "resourceType": "Observation",
        "status": "final",
        "focus": [{
            "reference": "BodyStructure/RUL",
            "display": "RLL (Right Lower Lobe)"
        }],
        "category": [
            {
                "coding": [
                    {
                        "system": "http://terminology.hl7.org/CodeSystem/observation-category",
                        "code": "Lobar_CT_Assessment",
                        "display": "Lobar CT Assessment"
                    }
                ],
                "text": "Lobar CT Assessment"
            }
        ],
        "code":{
            "coding": [
                {
                    "system": "http://terminology.hl7.org/CodeSystem/observation-category",
                    "code": "Lobe_Volume",
                    "display": "Lobe Volume"
                }
            ],
            "text": "Lobe Volume"
        },
        "subject": {
            "reference": "Patient/COVID19 Gleamer"
        },
        "effectiveDateTime": "20xx-xx-xx",
        "valueQuantity": {
            "value": 683,
            "unit": "ml",
            "system": "http://unitofmeasure.org",
            "code": "ml"
        }
    }
},
{
    "request":{
        "method": "PUT",
        "url": "Observation?identifier=temp|Observation_..."
    },
    "fullurl": "urn.uuid:FHIR_MODEL_EXAMPLE_OBSERVATION_..",
    "resource":{
        "resourceType": "Observation",
        "status": "final",
        "focus": [{
            "reference": "BodyStructure/RUL",
            "display": "LUL (Left Upper Lobe)"
        }],
        "category": [
            {
                "coding": [
                    {
                        "system": "http://terminology.hl7.org/CodeSystem/observation-category",
                        "code": "Lobar_CT_Assessment",
                        "display": "Lobar CT Assessment"
                    }
                ],
                "text": "Lobar CT Assessment"
            }
        ],
        "code":{
            "coding": [
                {
                    "system": "http://terminology.hl7.org/CodeSystem/observation-category",
                    "code": "Lobe_Volume",
                    "display": "Lobe Volume"
                }
            ],
            "text": "Lobe Volume"
        },
        "subject": {
            "reference": "Patient/COVID19 Gleamer"
        },
        "effectiveDateTime": "20xx-xx-xx",
        "valueQuantity": {
            "value": 855,
            "unit": "ml",
            "system": "http://unitofmeasure.org",
            "code": "ml"
        }
    }
},
{
    "request":{
        "method": "PUT",
        "url": "Observation?identifier=temp|Observation_..."
    },
    "fullurl": "urn.uuid:FHIR_MODEL_EXAMPLE_OBSERVATION_..",
    "resource":{
        "resourceType": "Observation",
        "status": "final",
        "focus": [{
            "reference": "BodyStructure/RUL",
            "display": "LLL (Left Lower Lobe)"
        }],
        "category": [
            {
                "coding": [
                    {
                        "system": "http://terminology.hl7.org/CodeSystem/observation-category",
                        "code": "Lobar_CT_Assessment",
                        "display": "Lobar CT Assessment"
                    }
                ],
                "text": "Lobar CT Assessment"
            }
        ],
        "code":{
            "coding": [
                {
                    "system": "http://terminology.hl7.org/CodeSystem/observation-category",
                    "code": "Lobe_Volume",
                    "display": "Lobe Volume"
                }
            ],
            "text": "Lobe Volume"
        },
        "subject": {
            "reference": "Patient/COVID19 Gleamer"
        },
       "effectiveDateTime": "20xx-xx-xx",
        "valueQuantity": {
            "value": 582,
            "unit": "ml",
            "system": "http://unitofmeasure.org",
            "code": "ml"
        }
    }
},
{
    "request":{
        "method": "PUT",
        "url": "Observation?identifier=temp|Observation_..."
    },
    "fullurl": "urn.uuid:FHIR_MODEL_EXAMPLE_OBSERVATION_..",
    "resource":{
        "resourceType": "Observation",
        "status": "final",
        "focus": [{
            "reference": "BodyStructure/RUL",
            "display": "RUL (Right Upper Lobe)"
        }],
        "category": [
            {
                "coding": [
                    {
                        "system": "http://terminology.hl7.org/CodeSystem/observation-category",
                        "code": "Lobar_CT_Assessment",
                        "display": "Lobar CT Assessment"
                    }
                ],
                "text": "Lobar CT Assessment"
            }
        ],
        "code":{
            "coding": [
                {
                    "system": "http://terminology.hl7.org/CodeSystem/observation-category",
                    "code": "Severity_Score",
                    "display": "Severity Score (0-5)"
                }
            ],
            "text": "Severity Score (0-5)"
        },
        "subject": {
            "reference": "Patient/COVID19 Gleamer"
        },
        "effectiveDateTime": "20xx-xx-xx",
        "valueQuantity": {
            "value": 3,
            "unit": "",
            "system": "http://unitofmeasure.org",
            "code": ""
        },
        "referenceRange": [
            {
                "low": {
                    "value": 0
                },
                "high": {
                    "value": 5
                }
            }
        ]
    }
},
{
    "request":{
        "method": "PUT",
        "url": "Observation?identifier=temp|Observation_..."
    },
    "fullurl": "urn.uuid:FHIR_MODEL_EXAMPLE_OBSERVATION_..",
    "resource":{
        "resourceType": "Observation",
        "status": "final",
        "focus": [{
            "reference": "BodyStructure/RML",
            "display": "RML (Right Middle Lobe)"
        }],
        "category": [
            {
                "coding": [
                    {
                        "system": "http://terminology.hl7.org/CodeSystem/observation-category",
                        "code": "Lobar_CT_Assessment",
                        "display": "Lobar CT Assessment"
                    }
                ],
                "text": "Lobar CT Assessment"
            }
        ],
        "code":{
            "coding": [
                {
                    "system": "http://terminology.hl7.org/CodeSystem/observation-category",
                    "code": "Severity_Score",
                    "display": "Severity Score (0-5)"
                }
            ],
            "text": "Severity Score (0-5)"
        },
        "subject": {
            "reference": "Patient/COVID19 Gleamer"
        },
        "effectiveDateTime": "20xx-xx-xx",
        "valueQuantity": {
            "value": 2,
            "unit": "",
            "system": "http://unitofmeasure.org",
            "code": ""
        },
        "referenceRange": [
            {
                "low": {
                    "value": 0
                },
                "high": {
                    "value": 5
                }
            }
        ]
    }
},
{
    "request":{
        "method": "PUT",
        "url": "Observation?identifier=temp|Observation_..."
    },
    "fullurl": "urn.uuid:FHIR_MODEL_EXAMPLE_OBSERVATION_..",
    "resource":{
        "resourceType": "Observation",
        "status": "final",
        "focus": [{
            "reference": "BodyStructure/RLL",
            "display": "RLL (Right Lower Lobe)"
        }],
        "category": [
            {
                "coding": [
                    {
                        "system": "http://terminology.hl7.org/CodeSystem/observation-category",
                        "code": "Lobar_CT_Assessment",
                        "display": "Lobar CT Assessment"
                    }
                ],
                "text": "Lobar CT Assessment"
            }
        ],
        "code":{
            "coding": [
                {
                    "system": "http://terminology.hl7.org/CodeSystem/observation-category",
                    "code": "Severity_Score",
                    "display": "Severity Score (0-5)"
                }
            ],
            "text": "Severity Score (0-5)"
        },
        "subject": {
            "reference": "Patient/COVID19 Gleamer"
        },
        "effectiveDateTime": "20xx-xx-xx",
        "valueQuantity": {
            "value": 3,
            "unit": "",
            "system": "http://unitofmeasure.org",
            "code": ""
        },
        "referenceRange": [
            {
                "low": {
                    "value": 0
                },
                "high": {
                    "value": 5
                }
            }
        ]
    }
},
{
    "request":{
        "method": "PUT",
        "url": "Observation?identifier=temp|Observation_..."
    },
    "fullurl": "urn.uuid:FHIR_MODEL_EXAMPLE_OBSERVATION_..",
    "resource":{
        "resourceType": "Observation",
        "status": "final",
        "focus": [{
            "reference": "BodyStructure/LUL",
            "display": "LUL (Left Upper Lobe)"
        }],
        "category": [
            {
                "coding": [
                    {
                        "system": "http://terminology.hl7.org/CodeSystem/observation-category",
                        "code": "Lobar_CT_Assessment",
                        "display": "Lobar CT Assessment"
                    }
                ],
                "text": "Lobar CT Assessment"
            }
        ],
        "code":{
            "coding": [
                {
                    "system": "http://terminology.hl7.org/CodeSystem/observation-category",
                    "code": "Severity_Score",
                    "display": "Severity Score (0-5)"
                }
            ],
            "text": "Severity Score (0-5)"
        },
        "subject": {
            "reference": "Patient/COVID19 Gleamer"
        },
        "effectiveDateTime": "20xx-xx-xx",
        "valueQuantity": {
            "value": 2,
            "unit": "",
            "system": "http://unitofmeasure.org",
            "code": ""
        },
        "referenceRange": [
            {
                "low": {
                    "value": 0
                },
                "high": {
                    "value": 5
                }
            }
        ]
    }
},
{
    "request":{
        "method": "PUT",
        "url": "Observation?identifier=temp|Observation_..."
    },
    "fullurl": "urn.uuid:FHIR_MODEL_EXAMPLE_OBSERVATION_..",
    "resource":{
        "resourceType": "Observation",
        "status": "final",
        "focus": [{
            "reference": "BodyStructure/LLL",
            "display": "LLL (Left Lower Lobe)"
        }],
        "category": [
            {
                "coding": [
                    {
                        "system": "http://terminology.hl7.org/CodeSystem/observation-category",
                        "code": "Lobar_CT_Assessment",
                        "display": "Lobar CT Assessment"
                    }
                ],
                "text": "Lobar CT Assessment"
            }
        ],
        "code":{
            "coding": [
                {
                    "system": "http://terminology.hl7.org/CodeSystem/observation-category",
                    "code": "Severity_Score",
                    "display": "Severity Score (0-5)"
                }
            ],
            "text": "Severity Score (0-5)"
        },
        "subject": {
            "reference": "Patient/COVID19 Gleamer"
        },
        "effectiveDateTime": "20xx-xx-xx",
        "valueQuantity": {
            "value": 2,
            "unit": "",
            "system": "http://unitofmeasure.org",
            "code": ""
        },
        "referenceRange": [
            {
                "low": {
                    "value": 0
                },
                "high": {
                    "value": 5
                }
            }
        ]
    }
},
{
    "request":{
        "method": "PUT",
        "url": "Observation?identifier=temp|Observation_..."
    },
    "fullurl": "urn.uuid:FHIR_MODEL_EXAMPLE_OBSERVATION_..",
    "resource":{
        "resourceType": "Observation",
        "status": "final",
        "focus": [{
            "reference": "BodyStructure/RUL",
            "display": "RUL (Right Upper Lobe)"
        }],
        "category": [
            {
                "coding": [
                    {
                        "system": "http://terminology.hl7.org/CodeSystem/observation-category",
                        "code": "Lobar_CT_Assessment",
                        "display": "Lobar CT Assessment"
                    }
                ],
                "text": "Lobar CT Assessment"
            }
        ],
        "code":{
            "coding": [
                {
                    "system": "http://terminology.hl7.org/CodeSystem/observation-category",
                    "code": "Affected_Area",
                    "display": "Afected Area (%)"
                }
            ],
            "text": "Affected Area (%)"
        },
        "subject": {
            "reference": "Patient/COVID19 Gleamer"
        },
        "effectiveDateTime": "20xx-xx-xx",
        "valueQuantity": {
            "value": 40.7,
            "unit": "%",
            "system": "http://unitofmeasure.org",
            "code": "%"
        }        
    }
},
{
    "request":{
        "method": "PUT",
        "url": "Observation?identifier=temp|Observation_..."
    },
    "fullurl": "urn.uuid:FHIR_MODEL_EXAMPLE_OBSERVATION_..",
    "resource":{
        "resourceType": "Observation",
        "status": "final",
        "focus": [{
            "reference": "BodyStructure/RML",
            "display": "RML (Right Middle Lobe)"
        }],
        "category": [
            {
                "coding": [
                    {
                        "system": "http://terminology.hl7.org/CodeSystem/observation-category",
                        "code": "Lobar_CT_Assessment",
                        "display": "Lobar CT Assessment"
                    }
                ],
                "text": "Lobar CT Assessment"
            }
        ],
        "code":{
            "coding": [
                {
                    "system": "http://terminology.hl7.org/CodeSystem/observation-category",
                    "code": "Affected_Area",
                    "display": "Afected Area (%)"
                }
            ],
            "text": "Affected Area (%)"
        },
        "subject": {
            "reference": "Patient/COVID19 Gleamer"
        },
        "effectiveDateTime": "20xx-xx-xx",
        "valueQuantity": {
            "value": 19.3,
            "unit": "%",
            "system": "http://unitofmeasure.org",
            "code": "%"
        }        
    }
},
{
    "request":{
        "method": "PUT",
        "url": "Observation?identifier=temp|Observation_..."
    },
    "fullurl": "urn.uuid:FHIR_MODEL_EXAMPLE_OBSERVATION_..",
    "resource":{
        "resourceType": "Observation",
        "status": "final",
        "focus": [{
            "reference": "BodyStructure/RLL",
            "display": "RLL (Right Lower Lobe)"
        }],
        "category": [
            {
                "coding": [
                    {
                        "system": "http://terminology.hl7.org/CodeSystem/observation-category",
                        "code": "Lobar_CT_Assessment",
                        "display": "Lobar CT Assessment"
                    }
                ],
                "text": "Lobar CT Assessment"
            }
        ],
        "code":{
            "coding": [
                {
                    "system": "http://terminology.hl7.org/CodeSystem/observation-category",
                    "code": "Affected_Area",
                    "display": "Afected Area (%)"
                }
            ],
            "text": "Affected Area (%)"
        },
        "subject": {
            "reference": "Patient/COVID19 Gleamer"
        },
        "effectiveDateTime": "20xx-xx-xx",
        "valueQuantity": {
            "value": 25.2,
            "unit": "%",
            "system": "http://unitofmeasure.org",
            "code": "%"
        }        
    }
},
{
    "request":{
        "method": "PUT",
        "url": "Observation?identifier=temp|Observation_..."
    },
    "fullurl": "urn.uuid:FHIR_MODEL_EXAMPLE_OBSERVATION_..",
    "resource":{
        "resourceType": "Observation",
        "status": "final",
        "focus": [{
            "reference": "BodyStructure/LUL",
            "display": "LUL (Left Upper Lobe)"
        }],
        "category": [
            {
                "coding": [
                    {
                        "system": "http://terminology.hl7.org/CodeSystem/observation-category",
                        "code": "Lobar_CT_Assessment",
                        "display": "Lobar CT Assessment"
                    }
                ],
                "text": "Lobar CT Assessment"
            }
        ],
        "code":{
            "coding": [
                {
                    "system": "http://terminology.hl7.org/CodeSystem/observation-category",
                    "code": "Affected_Area",
                    "display": "Afected Area (%)"
                }
            ],
            "text": "Affected Area (%)"
        },
        "subject": {
            "reference": "Patient/COVID19 Gleamer"
        },
        "effectiveDateTime": "20xx-xx-xx",
        "valueQuantity": {
            "value": 21.9,
            "unit": "%",
            "system": "http://unitofmeasure.org",
            "code": "%"
        }        
    }
},
{
    "request":{
        "method": "PUT",
        "url": "Observation?identifier=temp|Observation_..."
    },
    "fullurl": "urn.uuid:FHIR_MODEL_EXAMPLE_OBSERVATION_..",
    "resource":{
        "resourceType": "Observation",
        "status": "final",
        "focus": [{
            "reference": "BodyStructure/LLL",
            "display": "LLL (Left Lower Lobe)"
        }],
        "category": [
            {
                "coding": [
                    {
                        "system": "http://terminology.hl7.org/CodeSystem/observation-category",
                        "code": "Lobar_CT_Assessment",
                        "display": "Lobar CT Assessment"
                    }
                ],
                "text": "Lobar CT Assessment"
            }
        ],
        "code":{
            "coding": [
                {
                    "system": "http://terminology.hl7.org/CodeSystem/observation-category",
                    "code": "Affected_Area",
                    "display": "Afected Area (%)"
                }
            ],
            "text": "Affected Area (%)"
        },
        "subject": {
            "reference": "Patient/COVID19 Gleamer"
        },
        "effectiveDateTime": "20xx-xx-xx",
        "valueQuantity": {
            "value": 16.9,
            "unit": "%",
            "system": "http://unitofmeasure.org",
            "code": "%"
        }        
    }
},
{
    "request":{
        "method": "PUT",
        "url": "Observation?identifier=temp|Observation_..."
    },
    "fullurl": "urn.uuid:FHIR_MODEL_EXAMPLE_OBSERVATION_..",
    "resource":{
        "resourceType": "Observation",
        "status": "final",
        "focus": [{
            "reference": "BodyStructure/RUL",
            "display": "RUL (Right Upper Lobe)"
        }],
        "category": [
            {
                "coding": [
                    {
                        "system": "http://terminology.hl7.org/CodeSystem/observation-category",
                        "code": "Lobar_CT_Assessment",
                        "display": "Lobar CT Assessment"
                    }
                ],
                "text": "Lobar CT Assessment"
            }
        ],
        "code":{
            "coding": [
                {
                    "system": "http://terminology.hl7.org/CodeSystem/observation-category",
                    "code": "Emphysema",
                    "display": "Emphysema (%)"
                }
            ],
            "text": "Emphysema (%)"
        },
        "subject": {
            "reference": "Patient/COVID19 Gleamer"
        },
        "effectiveDateTime": "20xx-xx-xx",
        "valueQuantity": {
            "value": 0,
            "unit": "%",
            "system": "http://unitofmeasure.org",
            "code": "%"
        }        
    }
},
{
    "request":{
        "method": "PUT",
        "url": "Observation?identifier=temp|Observation_..."
    },
    "fullurl": "urn.uuid:FHIR_MODEL_EXAMPLE_OBSERVATION_..",
    "resource":{
        "resourceType": "Observation",
        "status": "final",
        "focus": [{
            "reference": "BodyStructure/RML",
            "display": "RML (Right Middle Lobe)"
        }],
        "category": [
            {
                "coding": [
                    {
                        "system": "http://terminology.hl7.org/CodeSystem/observation-category",
                        "code": "Lobar_CT_Assessment",
                        "display": "Lobar CT Assessment"
                    }
                ],
                "text": "Lobar CT Assessment"
            }
        ],
        "code":{
            "coding": [
                {
                    "system": "http://terminology.hl7.org/CodeSystem/observation-category",
                    "code": "Emphysema",
                    "display": "Emphysema (%)"
                }
            ],
            "text": "Emphysema (%)"
        },
        "subject": {
            "reference": "Patient/COVID19 Gleamer"
        },
        "effectiveDateTime": "20xx-xx-xx",
        "valueQuantity": {
            "value": 0.1,
            "unit": "%",
            "system": "http://unitofmeasure.org",
            "code": "%"
        }        
    }
},
{
    "request":{
        "method": "PUT",
        "url": "Observation?identifier=temp|Observation_..."
    },
    "fullurl": "urn.uuid:FHIR_MODEL_EXAMPLE_OBSERVATION_..",
    "resource":{
        "resourceType": "Observation",
        "status": "final",
        "focus": [{
            "reference": "BodyStructure/RLL",
            "display": "RLL (Right Upper Lobe)"
        }],
        "category": [
            {
                "coding": [
                    {
                        "system": "http://terminology.hl7.org/CodeSystem/observation-category",
                        "code": "Lobar_CT_Assessment",
                        "display": "Lobar CT Assessment"
                    }
                ],
                "text": "Lobar CT Assessment"
            }
        ],
        "code":{
            "coding": [
                {
                    "system": "http://terminology.hl7.org/CodeSystem/observation-category",
                    "code": "Emphysema",
                    "display": "Emphysema (%)"
                }
            ],
            "text": "Emphysema (%)"
        },
        "subject": {
            "reference": "Patient/COVID19 Gleamer"
        },
        "effectiveDateTime": "20xx-xx-xx",
        "valueQuantity": {
            "value": 0,
            "unit": "%",
            "system": "http://unitofmeasure.org",
            "code": "%"
        }        
    }
},
{
    "request":{
        "method": "PUT",
        "url": "Observation?identifier=temp|Observation_..."
    },
    "fullurl": "urn.uuid:FHIR_MODEL_EXAMPLE_OBSERVATION_..",
    "resource":{
        "resourceType": "Observation",
        "status": "final",
        "focus": [{
            "reference": "BodyStructure/LUL",
            "display": "LUL (Left Upper Lobe)"
        }],
        "category": [
            {
                "coding": [
                    {
                        "system": "http://terminology.hl7.org/CodeSystem/observation-category",
                        "code": "Lobar_CT_Assessment",
                        "display": "Lobar CT Assessment"
                    }
                ],
                "text": "Lobar CT Assessment"
            }
        ],
        "code":{
            "coding": [
                {
                    "system": "http://terminology.hl7.org/CodeSystem/observation-category",
                    "code": "Emphysema",
                    "display": "Emphysema (%)"
                }
            ],
            "text": "Emphysema (%)"
        },
        "subject": {
            "reference": "Patient/COVID19 Gleamer"
        },
        "effectiveDateTime": "20xx-xx-xx",
        "valueQuantity": {
            "value": 0,
            "unit": "%",
            "system": "http://unitofmeasure.org",
            "code": "%"
        }        
    }
},
{
    "request":{
        "method": "PUT",
        "url": "Observation?identifier=temp|Observation_..."
    },
    "fullurl": "urn.uuid:FHIR_MODEL_EXAMPLE_OBSERVATION_..",
    "resource":{
        "resourceType": "Observation",
        "status": "final",
        "focus": [{
            "reference": "BodyStructure/LLL",
            "display": "LLL (Left Lower Lobe)"
        }],
        "category": [
            {
                "coding": [
                    {
                        "system": "http://terminology.hl7.org/CodeSystem/observation-category",
                        "code": "Lobar_CT_Assessment",
                        "display": "Lobar CT Assessment"
                    }
                ],
                "text": "Lobar CT Assessment"
            }
        ],
        "code":{
            "coding": [
                {
                    "system": "http://terminology.hl7.org/CodeSystem/observation-category",
                    "code": "Emphysema",
                    "display": "Emphysema (%)"
                }
            ],
            "text": "Emphysema (%)"
        },
        "subject": {
            "reference": "Patient/COVID19 Gleamer"
        },
        "effectiveDateTime": "20xx-xx-xx",
        "valueQuantity": {
            "value": 0,
            "unit": "%",
            "system": "http://unitofmeasure.org",
            "code": "%"
        }        
    }
}